PE IR       SUBTECH     SPECTRUM    ASCII       PEDS        4.00        
   -1
TE110A_043_80K_AFTER_110K_BG.ASC
20/05/14
13:12:56.00
20/05/14
13:12:56.00
Administrator
TE110A.Thursday, May 14 2020, 012.
1000.000000
#HDR
-1
-1
#GR
cm-1
EGY
1.0
0.0
6000.000000
-2.000000
2501
8
105.433832
11.033057
#DATA
6000.000000	16.666499
5998.000000	16.699059
5996.000000	16.731441
5994.000000	16.763179
5992.000000	16.793279
5990.000000	16.824710
5988.000000	16.857948
5986.000000	16.892991
5984.000000	16.927939
5982.000000	16.960613
5980.000000	16.993100
5978.000000	17.025689
5976.000000	17.058841
5974.000000	17.092350
5972.000000	17.125945
5970.000000	17.160692
5968.000000	17.195307
5966.000000	17.229242
5964.000000	17.262717
5962.000000	17.297300
5960.000000	17.332651
5958.000000	17.368324
5956.000000	17.402836
5954.000000	17.437012
5952.000000	17.469879
5950.000000	17.503080
5948.000000	17.537194
5946.000000	17.572381
5944.000000	17.606932
5942.000000	17.640145
5940.000000	17.673180
5938.000000	17.707506
5936.000000	17.742124
5934.000000	17.776299
5932.000000	17.809552
5930.000000	17.843205
5928.000000	17.877067
5926.000000	17.912162
5924.000000	17.947806
5922.000000	17.983327
5920.000000	18.017887
5918.000000	18.052837
5916.000000	18.088856
5914.000000	18.126208
5912.000000	18.163554
5910.000000	18.201091
5908.000000	18.238838
5906.000000	18.274935
5904.000000	18.310205
5902.000000	18.345464
5900.000000	18.381387
5898.000000	18.418328
5896.000000	18.455318
5894.000000	18.492067
5892.000000	18.527663
5890.000000	18.562508
5888.000000	18.597173
5886.000000	18.632903
5884.000000	18.668775
5882.000000	18.704890
5880.000000	18.741170
5878.000000	18.777517
5876.000000	18.815040
5874.000000	18.852098
5872.000000	18.888511
5870.000000	18.924479
5868.000000	18.961312
5866.000000	18.999620
5864.000000	19.037240
5862.000000	19.074855
5860.000000	19.112240
5858.000000	19.150701
5856.000000	19.189084
5854.000000	19.227240
5852.000000	19.265185
5850.000000	19.303390
5848.000000	19.341934
5846.000000	19.380956
5844.000000	19.420298
5842.000000	19.460690
5840.000000	19.502052
5838.000000	19.544151
5836.000000	19.585930
5834.000000	19.627407
5832.000000	19.668674
5830.000000	19.710215
5828.000000	19.751698
5826.000000	19.793088
5824.000000	19.834774
5822.000000	19.875461
5820.000000	19.916063
5818.000000	19.956678
5816.000000	19.997737
5814.000000	20.039384
5812.000000	20.080617
5810.000000	20.121766
5808.000000	20.161985
5806.000000	20.200779
5804.000000	20.239218
5802.000000	20.279045
5800.000000	20.319588
5798.000000	20.361799
5796.000000	20.403981
5794.000000	20.445149
5792.000000	20.485568
5790.000000	20.526970
5788.000000	20.568946
5786.000000	20.610986
5784.000000	20.651112
5782.000000	20.691464
5780.000000	20.732602
5778.000000	20.773993
5776.000000	20.816471
5774.000000	20.859160
5772.000000	20.901157
5770.000000	20.943316
5768.000000	20.985448
5766.000000	21.028538
5764.000000	21.070390
5762.000000	21.110484
5760.000000	21.150982
5758.000000	21.192700
5756.000000	21.235656
5754.000000	21.278107
5752.000000	21.319747
5750.000000	21.361410
5748.000000	21.403261
5746.000000	21.444354
5744.000000	21.484847
5742.000000	21.525667
5740.000000	21.566398
5738.000000	21.607633
5736.000000	21.648117
5734.000000	21.688266
5732.000000	21.728843
5730.000000	21.768959
5728.000000	21.810026
5726.000000	21.851820
5724.000000	21.893531
5722.000000	21.934965
5720.000000	21.975321
5718.000000	22.016621
5716.000000	22.059721
5714.000000	22.104396
5712.000000	22.149627
5710.000000	22.193725
5708.000000	22.237367
5706.000000	22.281066
5704.000000	22.325206
5702.000000	22.369576
5700.000000	22.413577
5698.000000	22.457837
5696.000000	22.502418
5694.000000	22.546797
5692.000000	22.591397
5690.000000	22.636732
5688.000000	22.683130
5686.000000	22.729141
5684.000000	22.774380
5682.000000	22.819084
5680.000000	22.864176
5678.000000	22.909145
5676.000000	22.953558
5674.000000	22.998249
5672.000000	23.043715
5670.000000	23.089704
5668.000000	23.136016
5666.000000	23.181732
5664.000000	23.226756
5662.000000	23.271865
5660.000000	23.317693
5658.000000	23.364949
5656.000000	23.410811
5654.000000	23.455414
5652.000000	23.499631
5650.000000	23.545285
5648.000000	23.591210
5646.000000	23.636986
5644.000000	23.682368
5642.000000	23.727300
5640.000000	23.771791
5638.000000	23.817300
5636.000000	23.863162
5634.000000	23.908852
5632.000000	23.953839
5630.000000	23.998558
5628.000000	24.043493
5626.000000	24.088608
5624.000000	24.134000
5622.000000	24.179842
5620.000000	24.225961
5618.000000	24.271624
5616.000000	24.316221
5614.000000	24.360080
5612.000000	24.404681
5610.000000	24.450568
5608.000000	24.496702
5606.000000	24.542513
5604.000000	24.587624
5602.000000	24.633082
5600.000000	24.679362
5598.000000	24.726488
5596.000000	24.773376
5594.000000	24.819875
5592.000000	24.865905
5590.000000	24.912489
5588.000000	24.958957
5586.000000	25.005350
5584.000000	25.051669
5582.000000	25.098085
5580.000000	25.145026
5578.000000	25.193128
5576.000000	25.240901
5574.000000	25.288671
5572.000000	25.335724
5570.000000	25.383618
5568.000000	25.431634
5566.000000	25.479231
5564.000000	25.526600
5562.000000	25.574821
5560.000000	25.623135
5558.000000	25.670674
5556.000000	25.716851
5554.000000	25.762497
5552.000000	25.810031
5550.000000	25.857910
5548.000000	25.905700
5546.000000	25.954037
5544.000000	26.002899
5542.000000	26.050789
5540.000000	26.095604
5538.000000	26.140555
5536.000000	26.187200
5534.000000	26.235929
5532.000000	26.284807
5530.000000	26.333669
5528.000000	26.382204
5526.000000	26.428471
5524.000000	26.473662
5522.000000	26.519306
5520.000000	26.565874
5518.000000	26.613497
5516.000000	26.661432
5514.000000	26.710621
5512.000000	26.758167
5510.000000	26.803045
5508.000000	26.848222
5506.000000	26.896484
5504.000000	26.946444
5502.000000	26.995379
5500.000000	27.043731
5498.000000	27.089713
5496.000000	27.129249
5494.000000	27.168048
5492.000000	27.212313
5490.000000	27.265434
5488.000000	27.321473
5486.000000	27.378032
5484.000000	27.433431
5482.000000	27.485001
5480.000000	27.527496
5478.000000	27.561946
5476.000000	27.601512
5474.000000	27.653959
5472.000000	27.712799
5470.000000	27.766204
5468.000000	27.814311
5466.000000	27.861363
5464.000000	27.905209
5462.000000	27.950446
5460.000000	28.002098
5458.000000	28.059717
5456.000000	28.117145
5454.000000	28.167896
5452.000000	28.210655
5450.000000	28.246528
5448.000000	28.282216
5446.000000	28.324769
5444.000000	28.371881
5442.000000	28.426486
5440.000000	28.482059
5438.000000	28.531703
5436.000000	28.577754
5434.000000	28.623350
5432.000000	28.667547
5430.000000	28.712327
5428.000000	28.767184
5426.000000	28.835224
5424.000000	28.901005
5422.000000	28.957767
5420.000000	29.006706
5418.000000	29.039783
5416.000000	29.060568
5414.000000	29.086911
5412.000000	29.135736
5410.000000	29.204191
5408.000000	29.273935
5406.000000	29.336451
5404.000000	29.391567
5402.000000	29.443549
5400.000000	29.489964
5398.000000	29.524798
5396.000000	29.555353
5394.000000	29.601468
5392.000000	29.664829
5390.000000	29.726634
5388.000000	29.772461
5386.000000	29.818139
5384.000000	29.875869
5382.000000	29.933553
5380.000000	29.973658
5378.000000	30.008018
5376.000000	30.056961
5374.000000	30.124210
5372.000000	30.193189
5370.000000	30.253086
5368.000000	30.303398
5366.000000	30.349595
5364.000000	30.398864
5362.000000	30.453922
5360.000000	30.507734
5358.000000	30.547927
5356.000000	30.575306
5354.000000	30.610862
5352.000000	30.664109
5350.000000	30.722828
5348.000000	30.762367
5346.000000	30.796477
5344.000000	30.844164
5342.000000	30.896373
5340.000000	30.942470
5338.000000	30.993688
5336.000000	31.062164
5334.000000	31.132707
5332.000000	31.187248
5330.000000	31.230971
5328.000000	31.278113
5326.000000	31.336992
5324.000000	31.403835
5322.000000	31.465048
5320.000000	31.516016
5318.000000	31.563113
5316.000000	31.612781
5314.000000	31.665948
5312.000000	31.714286
5310.000000	31.754117
5308.000000	31.796433
5306.000000	31.848639
5304.000000	31.906869
5302.000000	31.963129
5300.000000	32.017714
5298.000000	32.072477
5296.000000	32.123660
5294.000000	32.166458
5292.000000	32.206609
5290.000000	32.254717
5288.000000	32.310965
5286.000000	32.368476
5284.000000	32.422402
5282.000000	32.476737
5280.000000	32.532071
5278.000000	32.588609
5276.000000	32.644849
5274.000000	32.696527
5272.000000	32.743096
5270.000000	32.787524
5268.000000	32.825327
5266.000000	32.858935
5264.000000	32.902164
5262.000000	32.966017
5260.000000	33.035824
5258.000000	33.089997
5256.000000	33.134676
5254.000000	33.185411
5252.000000	33.236376
5250.000000	33.279168
5248.000000	33.320063
5246.000000	33.374131
5244.000000	33.441445
5242.000000	33.510573
5240.000000	33.574148
5238.000000	33.627557
5236.000000	33.675443
5234.000000	33.721519
5232.000000	33.769402
5230.000000	33.816060
5228.000000	33.856963
5226.000000	33.901404
5224.000000	33.958901
5222.000000	34.024401
5220.000000	34.083461
5218.000000	34.137833
5216.000000	34.193391
5214.000000	34.247881
5212.000000	34.291593
5210.000000	34.322035
5208.000000	34.355286
5206.000000	34.411417
5204.000000	34.486748
5202.000000	34.558738
5200.000000	34.612666
5198.000000	34.660981
5196.000000	34.715272
5194.000000	34.774805
5192.000000	34.830868
5190.000000	34.881555
5188.000000	34.929729
5186.000000	34.980172
5184.000000	35.035870
5182.000000	35.095982
5180.000000	35.154278
5178.000000	35.210684
5176.000000	35.267140
5174.000000	35.322355
5172.000000	35.375342
5170.000000	35.429116
5168.000000	35.483542
5166.000000	35.536486
5164.000000	35.588774
5162.000000	35.643106
5160.000000	35.698510
5158.000000	35.752793
5156.000000	35.806903
5154.000000	35.861540
5152.000000	35.917791
5150.000000	35.975276
5148.000000	36.031592
5146.000000	36.084987
5144.000000	36.136386
5142.000000	36.189406
5140.000000	36.244665
5138.000000	36.300540
5136.000000	36.354721
5134.000000	36.407604
5132.000000	36.461168
5130.000000	36.516275
5128.000000	36.572065
5126.000000	36.626916
5124.000000	36.680074
5122.000000	36.732459
5120.000000	36.785104
5118.000000	36.839578
5116.000000	36.894420
5114.000000	36.949728
5112.000000	37.004499
5110.000000	37.059770
5108.000000	37.114666
5106.000000	37.170149
5104.000000	37.225683
5102.000000	37.281168
5100.000000	37.336417
5098.000000	37.392085
5096.000000	37.448180
5094.000000	37.504764
5092.000000	37.561220
5090.000000	37.617191
5088.000000	37.673254
5086.000000	37.730115
5084.000000	37.786595
5082.000000	37.843168
5080.000000	37.900026
5078.000000	37.957486
5076.000000	38.013891
5074.000000	38.069585
5072.000000	38.124686
5070.000000	38.181480
5068.000000	38.239384
5066.000000	38.297066
5064.000000	38.353303
5062.000000	38.408826
5060.000000	38.464629
5058.000000	38.521332
5056.000000	38.579197
5054.000000	38.635892
5052.000000	38.691016
5050.000000	38.746005
5048.000000	38.801537
5046.000000	38.857447
5044.000000	38.913270
5042.000000	38.969860
5040.000000	39.026699
5038.000000	39.083395
5036.000000	39.138683
5034.000000	39.193874
5032.000000	39.250023
5030.000000	39.306725
5028.000000	39.362289
5026.000000	39.417669
5024.000000	39.473181
5022.000000	39.528578
5020.000000	39.583969
5018.000000	39.640459
5016.000000	39.696893
5014.000000	39.753441
5012.000000	39.810213
5010.000000	39.868107
5008.000000	39.925573
5006.000000	39.982217
5004.000000	40.038821
5002.000000	40.095960
5000.000000	40.153555
4998.000000	40.211615
4996.000000	40.270552
4994.000000	40.329565
4992.000000	40.386885
4990.000000	40.444642
4988.000000	40.503072
4986.000000	40.562046
4984.000000	40.620403
4982.000000	40.678941
4980.000000	40.736542
4978.000000	40.794593
4976.000000	40.853043
4974.000000	40.910903
4972.000000	40.967737
4970.000000	41.025880
4968.000000	41.084168
4966.000000	41.141545
4964.000000	41.197988
4962.000000	41.255131
4960.000000	41.312883
4958.000000	41.371174
4956.000000	41.429523
4954.000000	41.486816
4952.000000	41.543207
4950.000000	41.600514
4948.000000	41.658177
4946.000000	41.713985
4944.000000	41.768707
4942.000000	41.825702
4940.000000	41.883857
4938.000000	41.941210
4936.000000	41.997438
4934.000000	42.053511
4932.000000	42.109183
4930.000000	42.166202
4928.000000	42.223999
4926.000000	42.281510
4924.000000	42.337746
4922.000000	42.394700
4920.000000	42.452205
4918.000000	42.509732
4916.000000	42.567044
4914.000000	42.624809
4912.000000	42.683079
4910.000000	42.741607
4908.000000	42.799115
4906.000000	42.857233
4904.000000	42.916726
4902.000000	42.977092
4900.000000	43.036103
4898.000000	43.094540
4896.000000	43.152514
4894.000000	43.211066
4892.000000	43.270504
4890.000000	43.330516
4888.000000	43.389193
4886.000000	43.447644
4884.000000	43.506978
4882.000000	43.567807
4880.000000	43.628013
4878.000000	43.687591
4876.000000	43.746095
4874.000000	43.804926
4872.000000	43.864632
4870.000000	43.924454
4868.000000	43.982484
4866.000000	44.040125
4864.000000	44.097800
4862.000000	44.155291
4860.000000	44.212632
4858.000000	44.271346
4856.000000	44.329984
4854.000000	44.388074
4852.000000	44.445483
4850.000000	44.503115
4848.000000	44.560544
4846.000000	44.618354
4844.000000	44.676345
4842.000000	44.734813
4840.000000	44.792976
4838.000000	44.850859
4836.000000	44.907867
4834.000000	44.965128
4832.000000	45.022071
4830.000000	45.079837
4828.000000	45.138376
4826.000000	45.197152
4824.000000	45.254332
4822.000000	45.311363
4820.000000	45.369276
4818.000000	45.428201
4816.000000	45.486583
4814.000000	45.545569
4812.000000	45.605936
4810.000000	45.667398
4808.000000	45.727329
4806.000000	45.786296
4804.000000	45.844641
4802.000000	45.904218
4800.000000	45.964356
4798.000000	46.024942
4796.000000	46.084726
4794.000000	46.145308
4792.000000	46.206062
4790.000000	46.267804
4788.000000	46.329465
4786.000000	46.390805
4784.000000	46.450875
4782.000000	46.510825
4780.000000	46.569516
4778.000000	46.627994
4776.000000	46.687770
4774.000000	46.748803
4772.000000	46.808278
4770.000000	46.867682
4768.000000	46.927859
4766.000000	46.987414
4764.000000	47.044676
4762.000000	47.103002
4760.000000	47.162666
4758.000000	47.221726
4756.000000	47.279633
4754.000000	47.339267
4752.000000	47.398892
4750.000000	47.457639
4748.000000	47.515544
4746.000000	47.573215
4744.000000	47.629609
4742.000000	47.687510
4740.000000	47.746641
4738.000000	47.804971
4736.000000	47.861659
4734.000000	47.919757
4732.000000	47.978115
4730.000000	48.036471
4728.000000	48.094852
4726.000000	48.153973
4724.000000	48.212676
4722.000000	48.273046
4720.000000	48.334632
4718.000000	48.395910
4716.000000	48.456150
4714.000000	48.517948
4712.000000	48.580579
4710.000000	48.642926
4708.000000	48.704936
4706.000000	48.768091
4704.000000	48.830736
4702.000000	48.893307
4700.000000	48.956311
4698.000000	49.020033
4696.000000	49.083496
4694.000000	49.146524
4692.000000	49.207566
4690.000000	49.267989
4688.000000	49.328964
4686.000000	49.390696
4684.000000	49.451450
4682.000000	49.512126
4680.000000	49.573292
4678.000000	49.635661
4676.000000	49.697244
4674.000000	49.758266
4672.000000	49.819591
4670.000000	49.882306
4668.000000	49.944797
4666.000000	50.006210
4664.000000	50.066123
4662.000000	50.126363
4660.000000	50.186963
4658.000000	50.248317
4656.000000	50.308919
4654.000000	50.369319
4652.000000	50.429503
4650.000000	50.490536
4648.000000	50.551057
4646.000000	50.612505
4644.000000	50.674463
4642.000000	50.736500
4640.000000	50.797231
4638.000000	50.857861
4636.000000	50.919032
4634.000000	50.981749
4632.000000	51.042807
4630.000000	51.101882
4628.000000	51.161774
4626.000000	51.224420
4624.000000	51.286955
4622.000000	51.349264
4620.000000	51.410719
4618.000000	51.472603
4616.000000	51.534718
4614.000000	51.598802
4612.000000	51.664391
4610.000000	51.730349
4608.000000	51.794719
4606.000000	51.859784
4604.000000	51.924490
4602.000000	51.988358
4600.000000	52.052581
4598.000000	52.118834
4596.000000	52.184526
4594.000000	52.249866
4592.000000	52.315067
4590.000000	52.379424
4588.000000	52.441770
4586.000000	52.505707
4584.000000	52.571297
4582.000000	52.636757
4580.000000	52.699830
4578.000000	52.762802
4576.000000	52.827191
4574.000000	52.892690
4572.000000	52.956161
4570.000000	53.018737
4568.000000	53.081960
4566.000000	53.146461
4564.000000	53.209957
4562.000000	53.272600
4560.000000	53.334677
4558.000000	53.397537
4556.000000	53.459919
4554.000000	53.522278
4552.000000	53.584202
4550.000000	53.646813
4548.000000	53.709106
4546.000000	53.771762
4544.000000	53.834151
4542.000000	53.897885
4540.000000	53.961387
4538.000000	54.024225
4536.000000	54.086536
4534.000000	54.149964
4532.000000	54.213141
4530.000000	54.276497
4528.000000	54.339355
4526.000000	54.402703
4524.000000	54.466886
4522.000000	54.531522
4520.000000	54.594840
4518.000000	54.658804
4516.000000	54.724252
4514.000000	54.789016
4512.000000	54.851383
4510.000000	54.915689
4508.000000	54.982444
4506.000000	55.049365
4504.000000	55.114946
4502.000000	55.180803
4500.000000	55.246154
4498.000000	55.311664
4496.000000	55.377280
4494.000000	55.443786
4492.000000	55.508842
4490.000000	55.573023
4488.000000	55.637774
4486.000000	55.703722
4484.000000	55.768902
4482.000000	55.833625
4480.000000	55.897141
4478.000000	55.961551
4476.000000	56.025054
4474.000000	56.087508
4472.000000	56.150219
4470.000000	56.214353
4468.000000	56.277244
4466.000000	56.340648
4464.000000	56.402773
4462.000000	56.464395
4460.000000	56.526592
4458.000000	56.589872
4456.000000	56.651578
4454.000000	56.713262
4452.000000	56.775778
4450.000000	56.839422
4448.000000	56.902253
4446.000000	56.964421
4444.000000	57.025560
4442.000000	57.087487
4440.000000	57.149553
4438.000000	57.212131
4436.000000	57.274160
4434.000000	57.336691
4432.000000	57.399232
4430.000000	57.461976
4428.000000	57.524556
4426.000000	57.589167
4424.000000	57.652954
4422.000000	57.715614
4420.000000	57.778829
4418.000000	57.844147
4416.000000	57.908598
4414.000000	57.972433
4412.000000	58.036854
4410.000000	58.103040
4408.000000	58.167866
4406.000000	58.232445
4404.000000	58.296749
4402.000000	58.361125
4400.000000	58.425434
4398.000000	58.490067
4396.000000	58.553470
4394.000000	58.616620
4392.000000	58.678592
4390.000000	58.741394
4388.000000	58.804063
4386.000000	58.865895
4384.000000	58.927018
4382.000000	58.988961
4380.000000	59.049892
4378.000000	59.110707
4376.000000	59.170843
4374.000000	59.231247
4372.000000	59.290991
4370.000000	59.350866
4368.000000	59.410567
4366.000000	59.471404
4364.000000	59.532267
4362.000000	59.593632
4360.000000	59.654984
4358.000000	59.716999
4356.000000	59.778914
4354.000000	59.842127
4352.000000	59.905319
4350.000000	59.968382
4348.000000	60.030406
4346.000000	60.093444
4344.000000	60.156935
4342.000000	60.219868
4340.000000	60.282001
4338.000000	60.345778
4336.000000	60.409143
4334.000000	60.473304
4332.000000	60.538440
4330.000000	60.603578
4328.000000	60.667403
4326.000000	60.731791
4324.000000	60.796627
4322.000000	60.864324
4320.000000	60.933251
4318.000000	61.001643
4316.000000	61.067942
4314.000000	61.134596
4312.000000	61.201458
4310.000000	61.269209
4308.000000	61.336350
4306.000000	61.403348
4304.000000	61.469826
4302.000000	61.536767
4300.000000	61.602779
4298.000000	61.668466
4296.000000	61.733059
4294.000000	61.797349
4292.000000	61.861111
4290.000000	61.925193
4288.000000	61.987921
4286.000000	62.050124
4284.000000	62.111073
4282.000000	62.171676
4280.000000	62.232218
4278.000000	62.293330
4276.000000	62.352379
4274.000000	62.410184
4272.000000	62.467994
4270.000000	62.527664
4268.000000	62.587337
4266.000000	62.647756
4264.000000	62.708617
4262.000000	62.771005
4260.000000	62.833462
4258.000000	62.896167
4256.000000	62.959873
4254.000000	63.024650
4252.000000	63.087004
4250.000000	63.149297
4248.000000	63.213016
4246.000000	63.278045
4244.000000	63.342360
4242.000000	63.406254
4240.000000	63.469775
4238.000000	63.534495
4236.000000	63.598841
4234.000000	63.662963
4232.000000	63.727460
4230.000000	63.792855
4228.000000	63.856528
4226.000000	63.920135
4224.000000	63.984659
4222.000000	64.049847
4220.000000	64.113588
4218.000000	64.176347
4216.000000	64.239221
4214.000000	64.305380
4212.000000	64.372382
4210.000000	64.438788
4208.000000	64.504912
4206.000000	64.572616
4204.000000	64.640585
4202.000000	64.708254
4200.000000	64.775225
4198.000000	64.843910
4196.000000	64.912452
4194.000000	64.979635
4192.000000	65.046214
4190.000000	65.114875
4188.000000	65.183648
4186.000000	65.251751
4184.000000	65.317970
4182.000000	65.384051
4180.000000	65.450658
4178.000000	65.516319
4176.000000	65.579422
4174.000000	65.643743
4172.000000	65.708178
4170.000000	65.772614
4168.000000	65.837635
4166.000000	65.902925
4164.000000	65.966061
4162.000000	66.029031
4160.000000	66.092745
4158.000000	66.157664
4156.000000	66.221616
4154.000000	66.286406
4152.000000	66.351804
4150.000000	66.416273
4148.000000	66.479491
4146.000000	66.545149
4144.000000	66.611398
4142.000000	66.676663
4140.000000	66.740315
4138.000000	66.805334
4136.000000	66.870901
4134.000000	66.936799
4132.000000	67.003010
4130.000000	67.069882
4128.000000	67.135485
4126.000000	67.202098
4124.000000	67.269112
4122.000000	67.336306
4120.000000	67.402633
4118.000000	67.468731
4116.000000	67.534561
4114.000000	67.600860
4112.000000	67.665461
4110.000000	67.729642
4108.000000	67.792538
4106.000000	67.855932
4104.000000	67.921230
4102.000000	67.987756
4100.000000	68.052520
4098.000000	68.116484
4096.000000	68.180364
4094.000000	68.245451
4092.000000	68.310168
4090.000000	68.376244
4088.000000	68.444694
4086.000000	68.515649
4084.000000	68.585546
4082.000000	68.652463
4080.000000	68.717791
4078.000000	68.785748
4076.000000	68.854128
4074.000000	68.921371
4072.000000	68.986056
4070.000000	69.049970
4068.000000	69.114513
4066.000000	69.180049
4064.000000	69.244756
4062.000000	69.308892
4060.000000	69.372541
4058.000000	69.437745
4056.000000	69.502932
4054.000000	69.568611
4052.000000	69.634119
4050.000000	69.698745
4048.000000	69.758480
4046.000000	69.816846
4044.000000	69.882081
4042.000000	69.953693
4040.000000	70.023550
4038.000000	70.091705
4036.000000	70.157787
4034.000000	70.222770
4032.000000	70.288506
4030.000000	70.355858
4028.000000	70.421263
4026.000000	70.487714
4024.000000	70.557955
4022.000000	70.627874
4020.000000	70.693673
4018.000000	70.761186
4016.000000	70.831232
4014.000000	70.901664
4012.000000	70.968962
4010.000000	71.033277
4008.000000	71.100804
4006.000000	71.175252
4004.000000	71.247851
4002.000000	71.315774
4000.000000	71.381337
3998.000000	71.444359
3996.000000	71.504634
3994.000000	71.567424
3992.000000	71.631964
3990.000000	71.699281
3988.000000	71.768957
3986.000000	71.834626
3984.000000	71.893856
3982.000000	71.954786
3980.000000	72.017620
3978.000000	72.075833
3976.000000	72.129350
3974.000000	72.188606
3972.000000	72.254361
3970.000000	72.322355
3968.000000	72.391136
3966.000000	72.453594
3964.000000	72.501137
3962.000000	72.551022
3960.000000	72.616379
3958.000000	72.686314
3956.000000	72.749331
3954.000000	72.799423
3952.000000	72.825569
3950.000000	72.847892
3948.000000	72.906013
3946.000000	72.974249
3944.000000	73.017103
3942.000000	73.092600
3940.000000	73.211644
3938.000000	73.306562
3936.000000	73.332415
3934.000000	73.308058
3932.000000	73.332751
3930.000000	73.447891
3928.000000	73.547510
3926.000000	73.587630
3924.000000	73.638869
3922.000000	73.688870
3920.000000	73.680647
3918.000000	73.700505
3916.000000	73.852507
3914.000000	74.056333
3912.000000	74.189337
3910.000000	74.237901
3908.000000	74.143725
3906.000000	73.876222
3904.000000	73.648549
3902.000000	73.654970
3900.000000	73.885550
3898.000000	74.252486
3896.000000	74.516981
3894.000000	74.473408
3892.000000	74.361652
3890.000000	74.435419
3888.000000	74.416592
3886.000000	74.330195
3884.000000	74.478045
3882.000000	74.648628
3880.000000	74.792130
3878.000000	74.984275
3876.000000	75.021198
3874.000000	74.874511
3872.000000	74.598588
3870.000000	74.496794
3868.000000	74.728066
3866.000000	74.912016
3864.000000	75.037909
3862.000000	75.294758
3860.000000	75.506632
3858.000000	75.205394
3856.000000	74.140368
3854.000000	73.396253
3852.000000	74.048622
3850.000000	75.278839
3848.000000	75.950502
3846.000000	76.032145
3844.000000	75.903538
3842.000000	75.667231
3840.000000	75.230422
3838.000000	75.017430
3836.000000	75.394453
3834.000000	75.893434
3832.000000	76.192243
3830.000000	76.413148
3828.000000	76.547316
3826.000000	76.558540
3824.000000	76.311725
3822.000000	76.001830
3820.000000	76.004016
3818.000000	75.980882
3816.000000	76.047865
3814.000000	76.622622
3812.000000	77.125841
3810.000000	77.038753
3808.000000	76.713655
3806.000000	76.675429
3804.000000	76.573474
3802.000000	76.355479
3800.000000	76.662150
3798.000000	77.178159
3796.000000	77.486519
3794.000000	77.734246
3792.000000	77.905770
3790.000000	77.979868
3788.000000	78.002801
3786.000000	78.011926
3784.000000	78.038956
3782.000000	78.020446
3780.000000	77.997110
3778.000000	78.130589
3776.000000	78.323906
3774.000000	78.362362
3772.000000	78.204162
3770.000000	78.093016
3768.000000	78.181882
3766.000000	78.343867
3764.000000	78.490470
3762.000000	78.496398
3760.000000	78.416137
3758.000000	78.457624
3756.000000	78.354466
3754.000000	77.723798
3752.000000	77.032681
3750.000000	77.042969
3748.000000	77.309335
3746.000000	77.067986
3744.000000	77.236436
3742.000000	78.221576
3740.000000	78.739264
3738.000000	78.462069
3736.000000	78.190161
3734.000000	78.305266
3732.000000	78.705410
3730.000000	79.174056
3728.000000	79.375687
3726.000000	79.395229
3724.000000	79.467998
3722.000000	79.598170
3720.000000	79.766336
3718.000000	79.909809
3716.000000	79.836395
3714.000000	79.436135
3712.000000	79.167065
3710.000000	79.434443
3708.000000	79.932897
3706.000000	80.229753
3704.000000	80.226054
3702.000000	80.190756
3700.000000	80.346212
3698.000000	80.529851
3696.000000	80.582244
3694.000000	80.433049
3692.000000	79.980127
3690.000000	79.469239
3688.000000	79.596286
3686.000000	80.314674
3684.000000	80.804568
3682.000000	80.855101
3680.000000	80.596427
3678.000000	79.962841
3676.000000	79.495729
3674.000000	79.669345
3672.000000	79.800762
3670.000000	79.935342
3668.000000	80.536497
3666.000000	81.099877
3664.000000	81.310098
3662.000000	81.343470
3660.000000	81.232502
3658.000000	80.950892
3656.000000	80.842267
3654.000000	80.861863
3652.000000	80.444032
3650.000000	79.955566
3648.000000	80.177077
3646.000000	80.867109
3644.000000	81.354335
3642.000000	81.519494
3640.000000	81.561813
3638.000000	81.563908
3636.000000	81.514979
3634.000000	81.380738
3632.000000	80.936662
3630.000000	80.365248
3628.000000	80.502511
3626.000000	81.181740
3624.000000	81.516505
3622.000000	81.331942
3620.000000	81.057291
3618.000000	81.102386
3616.000000	81.262009
3614.000000	81.244212
3612.000000	81.139423
3610.000000	81.066570
3608.000000	81.190039
3606.000000	81.475302
3604.000000	81.635691
3602.000000	81.624574
3600.000000	81.586681
3598.000000	81.552883
3596.000000	81.506580
3594.000000	81.517531
3592.000000	81.500923
3590.000000	81.289373
3588.000000	81.116098
3586.000000	81.265610
3584.000000	81.526626
3582.000000	81.644441
3580.000000	81.656001
3578.000000	81.651608
3576.000000	81.650308
3574.000000	81.650406
3572.000000	81.586273
3570.000000	81.359827
3568.000000	81.133153
3566.000000	81.185586
3564.000000	81.398017
3562.000000	81.520587
3560.000000	81.560655
3558.000000	81.585701
3556.000000	81.574545
3554.000000	81.521981
3552.000000	81.491841
3550.000000	81.475509
3548.000000	81.403849
3546.000000	81.350404
3544.000000	81.397211
3542.000000	81.473860
3540.000000	81.493593
3538.000000	81.460149
3536.000000	81.433877
3534.000000	81.429384
3532.000000	81.393496
3530.000000	81.319136
3528.000000	81.251859
3526.000000	81.204960
3524.000000	81.170836
3522.000000	81.166259
3520.000000	81.170047
3518.000000	81.154570
3516.000000	81.125334
3514.000000	81.079523
3512.000000	81.012549
3510.000000	80.949899
3508.000000	80.911953
3506.000000	80.851271
3504.000000	80.761641
3502.000000	80.715269
3500.000000	80.701594
3498.000000	80.660748
3496.000000	80.604606
3494.000000	80.558983
3492.000000	80.509841
3490.000000	80.447383
3488.000000	80.389049
3486.000000	80.345330
3484.000000	80.297804
3482.000000	80.256034
3480.000000	80.246696
3478.000000	80.252964
3476.000000	80.251898
3474.000000	80.253323
3472.000000	80.260728
3470.000000	80.264551
3468.000000	80.274526
3466.000000	80.305266
3464.000000	80.343307
3462.000000	80.379946
3460.000000	80.422712
3458.000000	80.464342
3456.000000	80.498885
3454.000000	80.529084
3452.000000	80.549836
3450.000000	80.547463
3448.000000	80.536666
3446.000000	80.563420
3444.000000	80.619503
3442.000000	80.682143
3440.000000	80.758307
3438.000000	80.845113
3436.000000	80.944851
3434.000000	81.066663
3432.000000	81.206015
3430.000000	81.349514
3428.000000	81.493590
3426.000000	81.631768
3424.000000	81.749843
3422.000000	81.851521
3420.000000	81.961858
3418.000000	82.080570
3416.000000	82.182805
3414.000000	82.263930
3412.000000	82.336072
3410.000000	82.403305
3408.000000	82.465439
3406.000000	82.521869
3404.000000	82.570195
3402.000000	82.613395
3400.000000	82.668231
3398.000000	82.745730
3396.000000	82.829057
3394.000000	82.894719
3392.000000	82.958224
3390.000000	83.043147
3388.000000	83.125874
3386.000000	83.188257
3384.000000	83.246922
3382.000000	83.306659
3380.000000	83.362036
3378.000000	83.414374
3376.000000	83.465439
3374.000000	83.512533
3372.000000	83.548297
3370.000000	83.573658
3368.000000	83.610266
3366.000000	83.663021
3364.000000	83.718325
3362.000000	83.769377
3360.000000	83.816125
3358.000000	83.859679
3356.000000	83.902079
3354.000000	83.944363
3352.000000	83.982595
3350.000000	84.023011
3348.000000	84.071238
3346.000000	84.117469
3344.000000	84.157540
3342.000000	84.195366
3340.000000	84.230419
3338.000000	84.264281
3336.000000	84.307335
3334.000000	84.356467
3332.000000	84.401699
3330.000000	84.439853
3328.000000	84.471465
3326.000000	84.502506
3324.000000	84.541076
3322.000000	84.583861
3320.000000	84.624758
3318.000000	84.661825
3316.000000	84.693776
3314.000000	84.723817
3312.000000	84.754218
3310.000000	84.778240
3308.000000	84.798842
3306.000000	84.827208
3304.000000	84.873407
3302.000000	84.928022
3300.000000	84.972170
3298.000000	85.005570
3296.000000	85.035612
3294.000000	85.064143
3292.000000	85.096361
3290.000000	85.139721
3288.000000	85.187169
3286.000000	85.229081
3284.000000	85.267197
3282.000000	85.305345
3280.000000	85.343250
3278.000000	85.375161
3276.000000	85.404802
3274.000000	85.438600
3272.000000	85.476609
3270.000000	85.522592
3268.000000	85.575006
3266.000000	85.621984
3264.000000	85.664252
3262.000000	85.706684
3260.000000	85.750095
3258.000000	85.791847
3256.000000	85.833339
3254.000000	85.881513
3252.000000	85.934840
3250.000000	85.983171
3248.000000	86.024389
3246.000000	86.065731
3244.000000	86.119594
3242.000000	86.177318
3240.000000	86.229477
3238.000000	86.278684
3236.000000	86.324091
3234.000000	86.364566
3232.000000	86.413684
3230.000000	86.471679
3228.000000	86.528111
3226.000000	86.581751
3224.000000	86.631084
3222.000000	86.674218
3220.000000	86.719081
3218.000000	86.769932
3216.000000	86.817997
3214.000000	86.864985
3212.000000	86.917291
3210.000000	86.971419
3208.000000	87.031634
3206.000000	87.097167
3204.000000	87.164759
3202.000000	87.234134
3200.000000	87.301838
3198.000000	87.369236
3196.000000	87.445654
3194.000000	87.525655
3192.000000	87.601595
3190.000000	87.673327
3188.000000	87.742558
3186.000000	87.810395
3184.000000	87.883107
3182.000000	87.956551
3180.000000	88.023506
3178.000000	88.092027
3176.000000	88.168647
3174.000000	88.244975
3172.000000	88.319703
3170.000000	88.394661
3168.000000	88.470239
3166.000000	88.545203
3164.000000	88.620600
3162.000000	88.697042
3160.000000	88.776206
3158.000000	88.855650
3156.000000	88.932693
3154.000000	89.002374
3152.000000	89.074395
3150.000000	89.159703
3148.000000	89.246137
3146.000000	89.324332
3144.000000	89.400159
3142.000000	89.472479
3140.000000	89.540517
3138.000000	89.611033
3136.000000	89.682537
3134.000000	89.747480
3132.000000	89.816296
3130.000000	89.887707
3128.000000	89.953119
3126.000000	90.013385
3124.000000	90.068029
3122.000000	90.115566
3120.000000	90.163026
3118.000000	90.213137
3116.000000	90.270737
3114.000000	90.338117
3112.000000	90.401433
3110.000000	90.452134
3108.000000	90.504764
3106.000000	90.566199
3104.000000	90.625616
3102.000000	90.680258
3100.000000	90.743199
3098.000000	90.811231
3096.000000	90.877574
3094.000000	90.945003
3092.000000	91.010062
3090.000000	91.068552
3088.000000	91.126747
3086.000000	91.180019
3084.000000	91.225419
3082.000000	91.264254
3080.000000	91.299493
3078.000000	91.340264
3076.000000	91.387416
3074.000000	91.422694
3072.000000	91.441699
3070.000000	91.449273
3068.000000	91.451956
3066.000000	91.466496
3064.000000	91.505351
3062.000000	91.557128
3060.000000	91.611383
3058.000000	91.665357
3056.000000	91.726338
3054.000000	91.792157
3052.000000	91.850609
3050.000000	91.901279
3048.000000	91.952276
3046.000000	91.994589
3044.000000	92.023943
3042.000000	92.048913
3040.000000	92.076080
3038.000000	92.097745
3036.000000	92.106135
3034.000000	92.101468
3032.000000	92.089121
3030.000000	92.060518
3028.000000	91.996523
3026.000000	91.889559
3024.000000	91.761180
3022.000000	91.644707
3020.000000	91.579403
3018.000000	91.604741
3016.000000	91.741613
3014.000000	91.973776
3012.000000	92.260259
3010.000000	92.543303
3008.000000	92.776406
3006.000000	92.941241
3004.000000	93.056235
3002.000000	93.138047
3000.000000	93.194283
2998.000000	93.233695
2996.000000	93.264386
2994.000000	93.284745
2992.000000	93.297096
2990.000000	93.299806
2988.000000	93.286065
2986.000000	93.251817
2984.000000	93.193717
2982.000000	93.104607
2980.000000	92.982444
2978.000000	92.818211
2976.000000	92.592974
2974.000000	92.286200
2972.000000	91.890363
2970.000000	91.407619
2968.000000	90.882498
2966.000000	90.397214
2964.000000	90.040531
2962.000000	89.868401
2960.000000	89.882796
2958.000000	90.026108
2956.000000	90.220428
2954.000000	90.404832
2952.000000	90.548009
2950.000000	90.618439
2948.000000	90.581370
2946.000000	90.416447
2944.000000	90.123490
2942.000000	89.713082
2940.000000	89.220326
2938.000000	88.705837
2936.000000	88.231336
2934.000000	87.808315
2932.000000	87.408055
2930.000000	87.016470
2928.000000	86.687610
2926.000000	86.523696
2924.000000	86.630831
2922.000000	87.050917
2920.000000	87.728721
2918.000000	88.546409
2916.000000	89.397521
2914.000000	90.198287
2912.000000	90.893713
2910.000000	91.451776
2908.000000	91.884020
2906.000000	92.232542
2904.000000	92.535805
2902.000000	92.811956
2900.000000	93.069052
2898.000000	93.307933
2896.000000	93.533285
2894.000000	93.748493
2892.000000	93.953864
2890.000000	94.140362
2888.000000	94.302777
2886.000000	94.432980
2884.000000	94.522574
2882.000000	94.565131
2880.000000	94.563025
2878.000000	94.510925
2876.000000	94.399099
2874.000000	94.218751
2872.000000	93.963818
2870.000000	93.603747
2868.000000	93.115894
2866.000000	92.537945
2864.000000	91.994279
2862.000000	91.639795
2860.000000	91.564298
2858.000000	91.731566
2856.000000	92.034685
2854.000000	92.392655
2852.000000	92.805475
2850.000000	93.312106
2848.000000	93.917293
2846.000000	94.539532
2844.000000	95.084410
2842.000000	95.517319
2840.000000	95.857272
2838.000000	96.128974
2836.000000	96.351028
2834.000000	96.532281
2832.000000	96.687762
2830.000000	96.824077
2828.000000	96.947029
2826.000000	97.057645
2824.000000	97.159515
2822.000000	97.252506
2820.000000	97.338007
2818.000000	97.415679
2816.000000	97.487255
2814.000000	97.550387
2812.000000	97.608236
2810.000000	97.661247
2808.000000	97.712524
2806.000000	97.760083
2804.000000	97.806670
2802.000000	97.850574
2800.000000	97.892888
2798.000000	97.933495
2796.000000	97.975112
2794.000000	98.016278
2792.000000	98.062903
2790.000000	98.117750
2788.000000	98.187489
2786.000000	98.268320
2784.000000	98.353280
2782.000000	98.434844
2780.000000	98.510699
2778.000000	98.577277
2776.000000	98.637682
2774.000000	98.695234
2772.000000	98.751813
2770.000000	98.802763
2768.000000	98.853019
2766.000000	98.902330
2764.000000	98.951049
2762.000000	98.996512
2760.000000	99.041420
2758.000000	99.085066
2756.000000	99.128488
2754.000000	99.169283
2752.000000	99.208685
2750.000000	99.245334
2748.000000	99.281994
2746.000000	99.317437
2744.000000	99.353377
2742.000000	99.387771
2740.000000	99.422062
2738.000000	99.454913
2736.000000	99.488821
2734.000000	99.522793
2732.000000	99.557319
2730.000000	99.590272
2728.000000	99.623229
2726.000000	99.654322
2724.000000	99.686306
2722.000000	99.717038
2720.000000	99.749004
2718.000000	99.779298
2716.000000	99.809440
2714.000000	99.836443
2712.000000	99.861778
2710.000000	99.884087
2708.000000	99.907260
2706.000000	99.931936
2704.000000	99.961419
2702.000000	99.996750
2700.000000	100.040022
2698.000000	100.085649
2696.000000	100.133046
2694.000000	100.177976
2692.000000	100.221410
2690.000000	100.262854
2688.000000	100.305002
2686.000000	100.345249
2684.000000	100.384019
2682.000000	100.418930
2680.000000	100.453415
2678.000000	100.486681
2676.000000	100.520292
2674.000000	100.551740
2672.000000	100.582607
2670.000000	100.610817
2668.000000	100.639319
2666.000000	100.667097
2664.000000	100.696429
2662.000000	100.724717
2660.000000	100.754142
2658.000000	100.783662
2656.000000	100.816982
2654.000000	100.852440
2652.000000	100.891685
2650.000000	100.930806
2648.000000	100.971010
2646.000000	101.009108
2644.000000	101.046746
2642.000000	101.082514
2640.000000	101.118110
2638.000000	101.151503
2636.000000	101.185474
2634.000000	101.216634
2632.000000	101.248388
2630.000000	101.276668
2628.000000	101.303487
2626.000000	101.329540
2624.000000	101.357670
2622.000000	101.384597
2620.000000	101.412011
2618.000000	101.439525
2616.000000	101.468074
2614.000000	101.492977
2612.000000	101.516364
2610.000000	101.535918
2608.000000	101.555462
2606.000000	101.572107
2604.000000	101.587668
2602.000000	101.598835
2600.000000	101.608713
2598.000000	101.617312
2596.000000	101.627543
2594.000000	101.640822
2592.000000	101.664055
2590.000000	101.695786
2588.000000	101.738048
2586.000000	101.788184
2584.000000	101.846301
2582.000000	101.908180
2580.000000	101.970746
2578.000000	102.027750
2576.000000	102.080687
2574.000000	102.127620
2572.000000	102.171320
2570.000000	102.209587
2568.000000	102.246863
2566.000000	102.280202
2564.000000	102.313132
2562.000000	102.342904
2560.000000	102.371193
2558.000000	102.397953
2556.000000	102.425939
2554.000000	102.451194
2552.000000	102.477796
2550.000000	102.502957
2548.000000	102.529316
2546.000000	102.554515
2544.000000	102.579965
2542.000000	102.603949
2540.000000	102.631399
2538.000000	102.658411
2536.000000	102.685851
2534.000000	102.710800
2532.000000	102.735668
2530.000000	102.758647
2528.000000	102.783978
2526.000000	102.808520
2524.000000	102.833655
2522.000000	102.857075
2520.000000	102.881960
2518.000000	102.904658
2516.000000	102.928201
2514.000000	102.949377
2512.000000	102.972308
2510.000000	102.994002
2508.000000	103.015227
2506.000000	103.034143
2504.000000	103.054653
2502.000000	103.075458
2500.000000	103.098772
2498.000000	103.121381
2496.000000	103.147163
2494.000000	103.171804
2492.000000	103.199100
2490.000000	103.225978
2488.000000	103.252044
2486.000000	103.276413
2484.000000	103.302102
2482.000000	103.326153
2480.000000	103.351017
2478.000000	103.373527
2476.000000	103.397588
2474.000000	103.418626
2472.000000	103.438981
2470.000000	103.456432
2468.000000	103.474269
2466.000000	103.489422
2464.000000	103.505901
2462.000000	103.521253
2460.000000	103.537608
2458.000000	103.552510
2456.000000	103.569656
2454.000000	103.585021
2452.000000	103.602534
2450.000000	103.618452
2448.000000	103.635085
2446.000000	103.650160
2444.000000	103.666566
2442.000000	103.680183
2440.000000	103.694951
2438.000000	103.709319
2436.000000	103.724248
2434.000000	103.736996
2432.000000	103.751925
2430.000000	103.761316
2428.000000	103.770252
2426.000000	103.781915
2424.000000	103.799196
2422.000000	103.814920
2420.000000	103.830914
2418.000000	103.842791
2416.000000	103.854242
2414.000000	103.864602
2412.000000	103.876923
2410.000000	103.887742
2408.000000	103.900683
2406.000000	103.912209
2404.000000	103.927281
2402.000000	103.942243
2400.000000	103.958962
2398.000000	103.973797
2396.000000	103.991407
2394.000000	104.008219
2392.000000	104.026069
2390.000000	104.040195
2388.000000	104.053313
2386.000000	104.055790
2384.000000	104.043500
2382.000000	104.004664
2380.000000	103.928335
2378.000000	103.801819
2376.000000	103.625363
2374.000000	103.399023
2372.000000	103.137674
2370.000000	102.857957
2368.000000	102.593329
2366.000000	102.371536
2364.000000	102.225209
2362.000000	102.175047
2360.000000	102.233849
2358.000000	102.400329
2356.000000	102.674180
2354.000000	103.030356
2352.000000	103.426801
2350.000000	103.714029
2348.000000	103.699169
2346.000000	103.441418
2344.000000	103.167060
2342.000000	102.966005
2340.000000	102.851918
2338.000000	102.803168
2336.000000	102.801696
2334.000000	102.834591
2332.000000	102.901454
2330.000000	102.996103
2328.000000	103.116257
2326.000000	103.246812
2324.000000	103.382846
2322.000000	103.517059
2320.000000	103.647250
2318.000000	103.763666
2316.000000	103.868981
2314.000000	103.959500
2312.000000	104.040129
2310.000000	104.108309
2308.000000	104.167081
2306.000000	104.212468
2304.000000	104.250306
2302.000000	104.280984
2300.000000	104.308288
2298.000000	104.328460
2296.000000	104.348589
2294.000000	104.365182
2292.000000	104.381766
2290.000000	104.393438
2288.000000	104.405616
2286.000000	104.415291
2284.000000	104.422812
2282.000000	104.422014
2280.000000	104.421239
2278.000000	104.415698
2276.000000	104.409738
2274.000000	104.403697
2272.000000	104.400497
2270.000000	104.393727
2268.000000	104.388385
2266.000000	104.381365
2264.000000	104.379035
2262.000000	104.375843
2260.000000	104.374960
2258.000000	104.372468
2256.000000	104.372851
2254.000000	104.373388
2252.000000	104.379878
2250.000000	104.385356
2248.000000	104.392871
2246.000000	104.399961
2244.000000	104.410947
2242.000000	104.421922
2240.000000	104.436837
2238.000000	104.449522
2236.000000	104.465324
2234.000000	104.478004
2232.000000	104.490854
2230.000000	104.502068
2228.000000	104.516901
2226.000000	104.526497
2224.000000	104.536786
2222.000000	104.544242
2220.000000	104.553690
2218.000000	104.559204
2216.000000	104.566117
2214.000000	104.571523
2212.000000	104.578779
2210.000000	104.582458
2208.000000	104.587900
2206.000000	104.590185
2204.000000	104.595561
2202.000000	104.599476
2200.000000	104.605156
2198.000000	104.608329
2196.000000	104.613509
2194.000000	104.613983
2192.000000	104.615822
2190.000000	104.615215
2188.000000	104.617059
2186.000000	104.616099
2184.000000	104.616654
2182.000000	104.613958
2180.000000	104.613344
2178.000000	104.609077
2176.000000	104.609000
2174.000000	104.601035
2172.000000	104.578080
2170.000000	104.550616
2168.000000	104.560911
2166.000000	104.584240
2164.000000	104.595579
2162.000000	104.594407
2160.000000	104.593682
2158.000000	104.591046
2156.000000	104.591653
2154.000000	104.588411
2152.000000	104.587960
2150.000000	104.585140
2148.000000	104.584596
2146.000000	104.581629
2144.000000	104.583565
2142.000000	104.582409
2140.000000	104.580490
2138.000000	104.573928
2136.000000	104.571491
2134.000000	104.570371
2132.000000	104.572417
2130.000000	104.570386
2128.000000	104.569885
2126.000000	104.568281
2124.000000	104.569754
2122.000000	104.569390
2120.000000	104.572342
2118.000000	104.573705
2116.000000	104.576244
2114.000000	104.580857
2112.000000	104.593560
2110.000000	104.605034
2108.000000	104.618788
2106.000000	104.630860
2104.000000	104.644888
2102.000000	104.654585
2100.000000	104.667640
2098.000000	104.678633
2096.000000	104.693008
2094.000000	104.704116
2092.000000	104.715444
2090.000000	104.722523
2088.000000	104.742187
2086.000000	104.758933
2084.000000	104.777322
2082.000000	104.789787
2080.000000	104.806447
2078.000000	104.820458
2076.000000	104.839373
2074.000000	104.853644
2072.000000	104.873495
2070.000000	104.891129
2068.000000	104.906091
2066.000000	104.908549
2064.000000	104.931092
2062.000000	104.964413
2060.000000	104.992531
2058.000000	105.013742
2056.000000	105.037799
2054.000000	105.056030
2052.000000	105.078384
2050.000000	105.097103
2048.000000	105.117922
2046.000000	105.133346
2044.000000	105.147340
2042.000000	105.153933
2040.000000	105.177752
2038.000000	105.201362
2036.000000	105.216473
2034.000000	105.223440
2032.000000	105.226555
2030.000000	105.209654
2028.000000	105.219359
2026.000000	105.253990
2024.000000	105.277359
2022.000000	105.283424
2020.000000	105.277412
2018.000000	105.259461
2016.000000	105.286568
2014.000000	105.335561
2012.000000	105.365836
2010.000000	105.380128
2008.000000	105.395904
2006.000000	105.408213
2004.000000	105.421845
2002.000000	105.427150
2000.000000	105.431128
1998.000000	105.433832
1996.000000	105.432902
1994.000000	105.375862
1992.000000	105.325673
1990.000000	105.364261
1988.000000	105.408709
1986.000000	105.424173
1984.000000	105.427840
1982.000000	105.417459
1980.000000	105.405674
1978.000000	105.390019
1976.000000	105.376759
1974.000000	105.359730
1972.000000	105.341379
1970.000000	105.294247
1968.000000	105.223516
1966.000000	105.208632
1964.000000	105.229560
1962.000000	105.178009
1960.000000	105.057352
1958.000000	105.025285
1956.000000	105.104910
1954.000000	105.132601
1952.000000	105.117496
1950.000000	105.082980
1948.000000	105.053862
1946.000000	104.992988
1944.000000	104.873607
1942.000000	104.828477
1940.000000	104.928540
1938.000000	104.964000
1936.000000	104.945236
1934.000000	104.912378
1932.000000	104.890393
1930.000000	104.863102
1928.000000	104.835140
1926.000000	104.765203
1924.000000	104.647831
1922.000000	104.583877
1920.000000	104.464330
1918.000000	104.307976
1916.000000	104.443963
1914.000000	104.543300
1912.000000	104.480124
1910.000000	104.375539
1908.000000	104.342890
1906.000000	104.326373
1904.000000	104.291591
1902.000000	104.236803
1900.000000	104.193989
1898.000000	104.121929
1896.000000	104.040991
1894.000000	104.006210
1892.000000	103.943330
1890.000000	103.803532
1888.000000	103.858205
1886.000000	103.944095
1884.000000	103.950983
1882.000000	103.935899
1880.000000	103.920897
1878.000000	103.891841
1876.000000	103.873574
1874.000000	103.830337
1872.000000	103.648444
1870.000000	103.275836
1868.000000	103.240258
1866.000000	103.513764
1864.000000	103.658600
1862.000000	103.645288
1860.000000	103.612536
1858.000000	103.580352
1856.000000	103.563444
1854.000000	103.525468
1852.000000	103.487741
1850.000000	103.396803
1848.000000	103.211438
1846.000000	102.689970
1844.000000	102.374298
1842.000000	102.835154
1840.000000	103.152386
1838.000000	103.100308
1836.000000	103.050371
1834.000000	102.975036
1832.000000	102.658021
1830.000000	102.337426
1828.000000	102.420443
1826.000000	102.389365
1824.000000	102.421417
1822.000000	102.581067
1820.000000	102.575489
1818.000000	102.480449
1816.000000	102.421537
1814.000000	102.320297
1812.000000	102.123589
1810.000000	102.008720
1808.000000	102.022810
1806.000000	101.970729
1804.000000	101.773894
1802.000000	101.452186
1800.000000	101.306314
1798.000000	101.345551
1796.000000	101.209449
1794.000000	100.580230
1792.000000	100.242178
1790.000000	100.662944
1788.000000	100.901637
1786.000000	100.670852
1784.000000	100.522695
1782.000000	100.437701
1780.000000	100.339711
1778.000000	100.305033
1776.000000	99.980367
1774.000000	99.074529
1772.000000	98.631029
1770.000000	99.078483
1768.000000	99.342822
1766.000000	99.610366
1764.000000	99.448109
1762.000000	99.033545
1760.000000	99.100561
1758.000000	99.036904
1756.000000	98.908039
1754.000000	98.687277
1752.000000	97.902580
1750.000000	97.662208
1748.000000	97.942377
1746.000000	98.056296
1744.000000	97.918485
1742.000000	97.545055
1740.000000	97.179946
1738.000000	97.166237
1736.000000	96.174897
1734.000000	95.156274
1732.000000	96.146667
1730.000000	97.093615
1728.000000	97.344377
1726.000000	97.355069
1724.000000	97.249336
1722.000000	97.055948
1720.000000	96.094818
1718.000000	94.759942
1716.000000	95.030866
1714.000000	96.046076
1712.000000	96.563166
1710.000000	96.523647
1708.000000	96.162821
1706.000000	95.711650
1704.000000	95.473644
1702.000000	94.222962
1700.000000	93.294061
1698.000000	93.655636
1696.000000	93.570752
1694.000000	94.757002
1692.000000	95.803135
1690.000000	95.741226
1688.000000	95.224239
1686.000000	93.522487
1684.000000	92.876103
1682.000000	94.418112
1680.000000	95.317227
1678.000000	95.136471
1676.000000	94.411343
1674.000000	94.421412
1672.000000	94.504835
1670.000000	94.059038
1668.000000	94.353373
1666.000000	94.783319
1664.000000	94.429907
1662.000000	94.259143
1660.000000	94.562570
1658.000000	94.470304
1656.000000	93.058169
1654.000000	90.422030
1652.000000	90.635968
1650.000000	92.741730
1648.000000	92.616814
1646.000000	92.251118
1644.000000	93.068567
1642.000000	93.554056
1640.000000	93.306580
1638.000000	92.341771
1636.000000	91.210828
1634.000000	91.743015
1632.000000	92.611552
1630.000000	92.457410
1628.000000	92.019922
1626.000000	91.591702
1624.000000	90.938389
1622.000000	90.652301
1620.000000	90.297503
1618.000000	88.973606
1616.000000	88.425144
1614.000000	88.954345
1612.000000	88.691410
1610.000000	88.051052
1608.000000	87.727293
1606.000000	87.780514
1604.000000	87.979236
1602.000000	88.228118
1600.000000	88.478895
1598.000000	88.686224
1596.000000	88.816393
1594.000000	88.930059
1592.000000	89.010243
1590.000000	89.022678
1588.000000	88.991269
1586.000000	88.926146
1584.000000	88.849044
1582.000000	88.794403
1580.000000	88.597132
1578.000000	87.555567
1576.000000	86.824102
1574.000000	87.790624
1572.000000	88.105715
1570.000000	87.568794
1568.000000	87.673055
1566.000000	87.806708
1564.000000	87.480545
1562.000000	86.086381
1560.000000	83.766399
1558.000000	83.806744
1556.000000	85.476555
1554.000000	86.383934
1552.000000	87.067290
1550.000000	87.437375
1548.000000	87.623974
1546.000000	87.393587
1544.000000	86.831430
1542.000000	85.864630
1540.000000	85.322321
1538.000000	86.802999
1536.000000	88.270351
1534.000000	88.270464
1532.000000	88.638175
1530.000000	89.019134
1528.000000	88.777182
1526.000000	88.407829
1524.000000	87.951031
1522.000000	87.097855
1520.000000	87.275913
1518.000000	87.778922
1516.000000	87.830051
1514.000000	87.886810
1512.000000	87.677785
1510.000000	87.014002
1508.000000	85.316627
1506.000000	84.525608
1504.000000	85.370772
1502.000000	84.909648
1500.000000	82.363710
1498.000000	78.875762
1496.000000	76.354238
1494.000000	76.186199
1492.000000	77.269975
1490.000000	78.893282
1488.000000	80.898118
1486.000000	82.633627
1484.000000	83.775147
1482.000000	84.287783
1480.000000	84.522379
1478.000000	84.372663
1476.000000	83.860735
1474.000000	83.107211
1472.000000	82.934041
1470.000000	83.494043
1468.000000	83.466487
1466.000000	82.739413
1464.000000	82.344724
1462.000000	82.194224
1460.000000	81.051835
1458.000000	78.942369
1456.000000	77.964566
1454.000000	78.123899
1452.000000	77.837130
1450.000000	77.885947
1448.000000	78.665312
1446.000000	79.708332
1444.000000	80.258281
1442.000000	80.386270
1440.000000	80.208957
1438.000000	79.555934
1436.000000	79.466904
1434.000000	80.190235
1432.000000	80.350246
1430.000000	80.254919
1428.000000	80.323361
1426.000000	80.346647
1424.000000	80.202501
1422.000000	79.873828
1420.000000	79.109590
1418.000000	79.108431
1416.000000	79.544485
1414.000000	79.526899
1412.000000	79.177131
1410.000000	78.656364
1408.000000	77.890860
1406.000000	77.019812
1404.000000	76.548250
1402.000000	76.583174
1400.000000	76.719529
1398.000000	77.110045
1396.000000	77.448569
1394.000000	77.788758
1392.000000	78.255805
1390.000000	78.262652
1388.000000	77.837269
1386.000000	77.610181
1384.000000	77.625342
1382.000000	77.749928
1380.000000	77.837713
1378.000000	77.767781
1376.000000	77.558597
1374.000000	77.388141
1372.000000	77.411039
1370.000000	77.351640
1368.000000	77.198870
1366.000000	77.031074
1364.000000	76.728287
1362.000000	76.517157
1360.000000	76.491885
1358.000000	76.411530
1356.000000	76.220837
1354.000000	76.015039
1352.000000	75.812396
1350.000000	75.597613
1348.000000	75.381758
1346.000000	75.158037
1344.000000	74.905529
1342.000000	74.595819
1340.000000	74.293397
1338.000000	74.167318
1336.000000	74.139227
1334.000000	74.072000
1332.000000	73.925372
1330.000000	73.732985
1328.000000	73.510411
1326.000000	73.268339
1324.000000	73.004309
1322.000000	72.714843
1320.000000	72.393222
1318.000000	72.090687
1316.000000	71.803345
1314.000000	71.494808
1312.000000	71.185878
1310.000000	70.882416
1308.000000	70.557335
1306.000000	70.230245
1304.000000	69.891020
1302.000000	69.546054
1300.000000	69.199936
1298.000000	68.855024
1296.000000	68.499680
1294.000000	68.136110
1292.000000	67.753347
1290.000000	67.355888
1288.000000	66.950657
1286.000000	66.552654
1284.000000	66.142105
1282.000000	65.711543
1280.000000	65.255493
1278.000000	64.768629
1276.000000	64.227853
1274.000000	63.612136
1272.000000	62.879624
1270.000000	61.993068
1268.000000	60.889741
1266.000000	59.572167
1264.000000	58.198109
1262.000000	57.092148
1260.000000	56.538604
1258.000000	56.550570
1256.000000	56.843836
1254.000000	57.088106
1252.000000	57.086862
1250.000000	56.843400
1248.000000	56.445677
1246.000000	55.974973
1244.000000	55.466237
1242.000000	54.952549
1240.000000	54.444973
1238.000000	53.953813
1236.000000	53.474679
1234.000000	53.009146
1232.000000	52.552937
1230.000000	52.107142
1228.000000	51.661172
1226.000000	51.211330
1224.000000	50.751436
1222.000000	50.280440
1220.000000	49.785905
1218.000000	49.273730
1216.000000	48.751105
1214.000000	48.235318
1212.000000	47.743175
1210.000000	47.291015
1208.000000	46.872323
1206.000000	46.474565
1204.000000	46.076164
1202.000000	45.676787
1200.000000	45.281059
1198.000000	44.893673
1196.000000	44.501712
1194.000000	44.097644
1192.000000	43.678080
1190.000000	43.248399
1188.000000	42.806481
1186.000000	42.336563
1184.000000	41.751963
1182.000000	41.022503
1180.000000	40.456030
1178.000000	40.208502
1176.000000	39.975216
1174.000000	39.617976
1172.000000	39.191685
1170.000000	38.743307
1168.000000	38.275744
1166.000000	37.800551
1164.000000	37.329426
1162.000000	36.869223
1160.000000	36.413456
1158.000000	35.978162
1156.000000	35.556556
1154.000000	35.137592
1152.000000	34.712345
1150.000000	34.290661
1148.000000	33.860472
1146.000000	33.422905
1144.000000	32.991938
1142.000000	32.612348
1140.000000	32.301293
1138.000000	31.991585
1136.000000	31.633330
1134.000000	31.239784
1132.000000	30.823816
1130.000000	30.399785
1128.000000	29.977010
1126.000000	29.558362
1124.000000	29.130249
1122.000000	28.691349
1120.000000	28.239703
1118.000000	27.781848
1116.000000	27.315656
1114.000000	26.846415
1112.000000	26.378267
1110.000000	25.916476
1108.000000	25.462375
1106.000000	25.027505
1104.000000	24.610663
1102.000000	24.200980
1100.000000	23.788222
1098.000000	23.380322
1096.000000	22.982160
1094.000000	22.599678
1092.000000	22.230711
1090.000000	21.878565
1088.000000	21.536803
1086.000000	21.201000
1084.000000	20.855512
1082.000000	20.497643
1080.000000	20.159000
1078.000000	19.856384
1076.000000	19.580143
1074.000000	19.345734
1072.000000	19.128958
1070.000000	18.903801
1068.000000	18.674009
1066.000000	18.445132
1064.000000	18.213436
1062.000000	17.979363
1060.000000	17.733430
1058.000000	17.448466
1056.000000	17.059738
1054.000000	16.544699
1052.000000	16.035657
1050.000000	15.737136
1048.000000	15.703429
1046.000000	15.785965
1044.000000	15.789418
1042.000000	15.675552
1040.000000	15.491959
1038.000000	15.277437
1036.000000	15.049784
1034.000000	14.813584
1032.000000	14.564616
1030.000000	14.306067
1028.000000	14.041236
1026.000000	13.773912
1024.000000	13.501266
1022.000000	13.232172
1020.000000	12.976582
1018.000000	12.742278
1016.000000	12.528978
1014.000000	12.340920
1012.000000	12.172126
1010.000000	12.011999
1008.000000	11.846405
1006.000000	11.668134
1004.000000	11.472932
1002.000000	11.262461
1000.000000	11.033057
