Created as New Dataset,Sample 037 By Administrator Date Monday, February 10 2020
cm-1,A
6000.00,1.0275
5999.00,1.0269
5998.00,1.0262
5997.00,1.0259
5996.00,1.0261
5995.00,1.0263
5994.00,1.0266
5993.00,1.0266
5992.00,1.0264
5991.00,1.0261
5990.00,1.0259
5989.00,1.0257
5988.00,1.0255
5987.00,1.0253
5986.00,1.0252
5985.00,1.0251
5984.00,1.0252
5983.00,1.0253
5982.00,1.0254
5981.00,1.0255
5980.00,1.0254
5979.00,1.0254
5978.00,1.0254
5977.00,1.0255
5976.00,1.0255
5975.00,1.0255
5974.00,1.0257
5973.00,1.0260
5972.00,1.0264
5971.00,1.0265
5970.00,1.0264
5969.00,1.0262
5968.00,1.0261
5967.00,1.0261
5966.00,1.0260
5965.00,1.0260
5964.00,1.0259
5963.00,1.0259
5962.00,1.0260
5961.00,1.0260
5960.00,1.0260
5959.00,1.0262
5958.00,1.0263
5957.00,1.0264
5956.00,1.0264
5955.00,1.0264
5954.00,1.0264
5953.00,1.0265
5952.00,1.0265
5951.00,1.0263
5950.00,1.0260
5949.00,1.0257
5948.00,1.0256
5947.00,1.0256
5946.00,1.0257
5945.00,1.0258
5944.00,1.0259
5943.00,1.0259
5942.00,1.0259
5941.00,1.0260
5940.00,1.0261
5939.00,1.0262
5938.00,1.0263
5937.00,1.0264
5936.00,1.0265
5935.00,1.0265
5934.00,1.0263
5933.00,1.0261
5932.00,1.0261
5931.00,1.0263
5930.00,1.0264
5929.00,1.0264
5928.00,1.0263
5927.00,1.0262
5926.00,1.0260
5925.00,1.0258
5924.00,1.0258
5923.00,1.0258
5922.00,1.0259
5921.00,1.0260
5920.00,1.0262
5919.00,1.0266
5918.00,1.0269
5917.00,1.0269
5916.00,1.0267
5915.00,1.0264
5914.00,1.0263
5913.00,1.0262
5912.00,1.0261
5911.00,1.0260
5910.00,1.0259
5909.00,1.0259
5908.00,1.0260
5907.00,1.0259
5906.00,1.0257
5905.00,1.0254
5904.00,1.0254
5903.00,1.0255
5902.00,1.0256
5901.00,1.0257
5900.00,1.0258
5899.00,1.0260
5898.00,1.0261
5897.00,1.0261
5896.00,1.0259
5895.00,1.0257
5894.00,1.0255
5893.00,1.0255
5892.00,1.0256
5891.00,1.0258
5890.00,1.0260
5889.00,1.0262
5888.00,1.0261
5887.00,1.0259
5886.00,1.0256
5885.00,1.0254
5884.00,1.0249
5883.00,1.0243
5882.00,1.0237
5881.00,1.0235
5880.00,1.0236
5879.00,1.0239
5878.00,1.0241
5877.00,1.0242
5876.00,1.0245
5875.00,1.0246
5874.00,1.0245
5873.00,1.0243
5872.00,1.0243
5871.00,1.0245
5870.00,1.0248
5869.00,1.0252
5868.00,1.0255
5867.00,1.0257
5866.00,1.0257
5865.00,1.0256
5864.00,1.0254
5863.00,1.0252
5862.00,1.0252
5861.00,1.0253
5860.00,1.0255
5859.00,1.0256
5858.00,1.0257
5857.00,1.0256
5856.00,1.0254
5855.00,1.0251
5854.00,1.0249
5853.00,1.0249
5852.00,1.0251
5851.00,1.0255
5850.00,1.0257
5849.00,1.0257
5848.00,1.0257
5847.00,1.0256
5846.00,1.0254
5845.00,1.0252
5844.00,1.0249
5843.00,1.0248
5842.00,1.0247
5841.00,1.0247
5840.00,1.0248
5839.00,1.0248
5838.00,1.0249
5837.00,1.0250
5836.00,1.0251
5835.00,1.0251
5834.00,1.0252
5833.00,1.0253
5832.00,1.0255
5831.00,1.0256
5830.00,1.0256
5829.00,1.0255
5828.00,1.0253
5827.00,1.0251
5826.00,1.0250
5825.00,1.0251
5824.00,1.0253
5823.00,1.0254
5822.00,1.0254
5821.00,1.0252
5820.00,1.0249
5819.00,1.0247
5818.00,1.0247
5817.00,1.0248
5816.00,1.0251
5815.00,1.0254
5814.00,1.0256
5813.00,1.0258
5812.00,1.0259
5811.00,1.0260
5810.00,1.0262
5809.00,1.0264
5808.00,1.0266
5807.00,1.0268
5806.00,1.0267
5805.00,1.0264
5804.00,1.0261
5803.00,1.0258
5802.00,1.0257
5801.00,1.0258
5800.00,1.0260
5799.00,1.0262
5798.00,1.0263
5797.00,1.0262
5796.00,1.0261
5795.00,1.0259
5794.00,1.0257
5793.00,1.0256
5792.00,1.0255
5791.00,1.0256
5790.00,1.0256
5789.00,1.0254
5788.00,1.0252
5787.00,1.0249
5786.00,1.0246
5785.00,1.0244
5784.00,1.0245
5783.00,1.0246
5782.00,1.0249
5781.00,1.0250
5780.00,1.0251
5779.00,1.0251
5778.00,1.0249
5777.00,1.0248
5776.00,1.0247
5775.00,1.0247
5774.00,1.0249
5773.00,1.0253
5772.00,1.0255
5771.00,1.0257
5770.00,1.0256
5769.00,1.0254
5768.00,1.0252
5767.00,1.0251
5766.00,1.0248
5765.00,1.0247
5764.00,1.0246
5763.00,1.0246
5762.00,1.0248
5761.00,1.0250
5760.00,1.0254
5759.00,1.0260
5758.00,1.0269
5757.00,1.0278
5756.00,1.0287
5755.00,1.0290
5754.00,1.0287
5753.00,1.0280
5752.00,1.0271
5751.00,1.0260
5750.00,1.0251
5749.00,1.0244
5748.00,1.0242
5747.00,1.0243
5746.00,1.0245
5745.00,1.0247
5744.00,1.0250
5743.00,1.0253
5742.00,1.0256
5741.00,1.0258
5740.00,1.0258
5739.00,1.0257
5738.00,1.0254
5737.00,1.0251
5736.00,1.0249
5735.00,1.0248
5734.00,1.0248
5733.00,1.0248
5732.00,1.0247
5731.00,1.0246
5730.00,1.0244
5729.00,1.0242
5728.00,1.0241
5727.00,1.0243
5726.00,1.0245
5725.00,1.0246
5724.00,1.0248
5723.00,1.0249
5722.00,1.0250
5721.00,1.0250
5720.00,1.0250
5719.00,1.0251
5718.00,1.0252
5717.00,1.0252
5716.00,1.0254
5715.00,1.0255
5714.00,1.0255
5713.00,1.0255
5712.00,1.0254
5711.00,1.0254
5710.00,1.0253
5709.00,1.0251
5708.00,1.0250
5707.00,1.0249
5706.00,1.0248
5705.00,1.0247
5704.00,1.0248
5703.00,1.0249
5702.00,1.0249
5701.00,1.0250
5700.00,1.0251
5699.00,1.0253
5698.00,1.0255
5697.00,1.0256
5696.00,1.0258
5695.00,1.0258
5694.00,1.0257
5693.00,1.0255
5692.00,1.0252
5691.00,1.0250
5690.00,1.0248
5689.00,1.0246
5688.00,1.0246
5687.00,1.0246
5686.00,1.0246
5685.00,1.0247
5684.00,1.0248
5683.00,1.0250
5682.00,1.0252
5681.00,1.0252
5680.00,1.0253
5679.00,1.0254
5678.00,1.0254
5677.00,1.0253
5676.00,1.0251
5675.00,1.0250
5674.00,1.0250
5673.00,1.0250
5672.00,1.0250
5671.00,1.0249
5670.00,1.0249
5669.00,1.0248
5668.00,1.0247
5667.00,1.0248
5666.00,1.0249
5665.00,1.0250
5664.00,1.0251
5663.00,1.0252
5662.00,1.0250
5661.00,1.0248
5660.00,1.0245
5659.00,1.0244
5658.00,1.0244
5657.00,1.0244
5656.00,1.0245
5655.00,1.0246
5654.00,1.0248
5653.00,1.0248
5652.00,1.0248
5651.00,1.0247
5650.00,1.0246
5649.00,1.0245
5648.00,1.0244
5647.00,1.0244
5646.00,1.0245
5645.00,1.0246
5644.00,1.0248
5643.00,1.0249
5642.00,1.0249
5641.00,1.0249
5640.00,1.0249
5639.00,1.0249
5638.00,1.0250
5637.00,1.0251
5636.00,1.0252
5635.00,1.0251
5634.00,1.0250
5633.00,1.0249
5632.00,1.0249
5631.00,1.0250
5630.00,1.0249
5629.00,1.0247
5628.00,1.0247
5627.00,1.0248
5626.00,1.0250
5625.00,1.0252
5624.00,1.0253
5623.00,1.0254
5622.00,1.0254
5621.00,1.0251
5620.00,1.0247
5619.00,1.0244
5618.00,1.0242
5617.00,1.0243
5616.00,1.0245
5615.00,1.0248
5614.00,1.0250
5613.00,1.0250
5612.00,1.0249
5611.00,1.0248
5610.00,1.0247
5609.00,1.0248
5608.00,1.0249
5607.00,1.0252
5606.00,1.0254
5605.00,1.0254
5604.00,1.0253
5603.00,1.0251
5602.00,1.0248
5601.00,1.0247
5600.00,1.0247
5599.00,1.0249
5598.00,1.0250
5597.00,1.0250
5596.00,1.0249
5595.00,1.0249
5594.00,1.0247
5593.00,1.0245
5592.00,1.0244
5591.00,1.0243
5590.00,1.0243
5589.00,1.0243
5588.00,1.0245
5587.00,1.0247
5586.00,1.0248
5585.00,1.0250
5584.00,1.0250
5583.00,1.0249
5582.00,1.0247
5581.00,1.0245
5580.00,1.0244
5579.00,1.0245
5578.00,1.0247
5577.00,1.0250
5576.00,1.0253
5575.00,1.0254
5574.00,1.0252
5573.00,1.0249
5572.00,1.0248
5571.00,1.0248
5570.00,1.0250
5569.00,1.0251
5568.00,1.0253
5567.00,1.0254
5566.00,1.0253
5565.00,1.0250
5564.00,1.0247
5563.00,1.0244
5562.00,1.0243
5561.00,1.0242
5560.00,1.0242
5559.00,1.0242
5558.00,1.0244
5557.00,1.0246
5556.00,1.0248
5555.00,1.0249
5554.00,1.0249
5553.00,1.0248
5552.00,1.0245
5551.00,1.0243
5550.00,1.0242
5549.00,1.0241
5548.00,1.0241
5547.00,1.0243
5546.00,1.0244
5545.00,1.0245
5544.00,1.0246
5543.00,1.0247
5542.00,1.0248
5541.00,1.0249
5540.00,1.0250
5539.00,1.0251
5538.00,1.0252
5537.00,1.0251
5536.00,1.0249
5535.00,1.0247
5534.00,1.0245
5533.00,1.0243
5532.00,1.0242
5531.00,1.0241
5530.00,1.0241
5529.00,1.0241
5528.00,1.0241
5527.00,1.0242
5526.00,1.0243
5525.00,1.0243
5524.00,1.0244
5523.00,1.0243
5522.00,1.0243
5521.00,1.0243
5520.00,1.0244
5519.00,1.0246
5518.00,1.0248
5517.00,1.0250
5516.00,1.0252
5515.00,1.0254
5514.00,1.0254
5513.00,1.0255
5512.00,1.0255
5511.00,1.0255
5510.00,1.0252
5509.00,1.0247
5508.00,1.0242
5507.00,1.0239
5506.00,1.0236
5505.00,1.0235
5504.00,1.0235
5503.00,1.0236
5502.00,1.0239
5501.00,1.0241
5500.00,1.0241
5499.00,1.0241
5498.00,1.0241
5497.00,1.0242
5496.00,1.0243
5495.00,1.0244
5494.00,1.0244
5493.00,1.0244
5492.00,1.0245
5491.00,1.0247
5490.00,1.0248
5489.00,1.0248
5488.00,1.0247
5487.00,1.0247
5486.00,1.0247
5485.00,1.0248
5484.00,1.0249
5483.00,1.0250
5482.00,1.0251
5481.00,1.0250
5480.00,1.0249
5479.00,1.0247
5478.00,1.0246
5477.00,1.0244
5476.00,1.0242
5475.00,1.0241
5474.00,1.0241
5473.00,1.0241
5472.00,1.0240
5471.00,1.0239
5470.00,1.0237
5469.00,1.0236
5468.00,1.0237
5467.00,1.0238
5466.00,1.0239
5465.00,1.0240
5464.00,1.0242
5463.00,1.0244
5462.00,1.0246
5461.00,1.0247
5460.00,1.0248
5459.00,1.0249
5458.00,1.0248
5457.00,1.0246
5456.00,1.0244
5455.00,1.0243
5454.00,1.0242
5453.00,1.0241
5452.00,1.0240
5451.00,1.0239
5450.00,1.0239
5449.00,1.0239
5448.00,1.0240
5447.00,1.0241
5446.00,1.0241
5445.00,1.0241
5444.00,1.0242
5443.00,1.0243
5442.00,1.0242
5441.00,1.0241
5440.00,1.0240
5439.00,1.0241
5438.00,1.0241
5437.00,1.0241
5436.00,1.0240
5435.00,1.0239
5434.00,1.0240
5433.00,1.0242
5432.00,1.0244
5431.00,1.0245
5430.00,1.0244
5429.00,1.0243
5428.00,1.0243
5427.00,1.0243
5426.00,1.0244
5425.00,1.0245
5424.00,1.0245
5423.00,1.0245
5422.00,1.0245
5421.00,1.0245
5420.00,1.0244
5419.00,1.0243
5418.00,1.0242
5417.00,1.0240
5416.00,1.0239
5415.00,1.0237
5414.00,1.0237
5413.00,1.0238
5412.00,1.0241
5411.00,1.0243
5410.00,1.0245
5409.00,1.0245
5408.00,1.0246
5407.00,1.0246
5406.00,1.0245
5405.00,1.0244
5404.00,1.0244
5403.00,1.0244
5402.00,1.0244
5401.00,1.0244
5400.00,1.0245
5399.00,1.0245
5398.00,1.0244
5397.00,1.0244
5396.00,1.0244
5395.00,1.0244
5394.00,1.0244
5393.00,1.0243
5392.00,1.0243
5391.00,1.0243
5390.00,1.0243
5389.00,1.0242
5388.00,1.0241
5387.00,1.0241
5386.00,1.0241
5385.00,1.0241
5384.00,1.0242
5383.00,1.0242
5382.00,1.0240
5381.00,1.0238
5380.00,1.0235
5379.00,1.0234
5378.00,1.0233
5377.00,1.0234
5376.00,1.0235
5375.00,1.0237
5374.00,1.0239
5373.00,1.0239
5372.00,1.0240
5371.00,1.0240
5370.00,1.0240
5369.00,1.0239
5368.00,1.0239
5367.00,1.0239
5366.00,1.0239
5365.00,1.0239
5364.00,1.0239
5363.00,1.0240
5362.00,1.0241
5361.00,1.0241
5360.00,1.0240
5359.00,1.0240
5358.00,1.0240
5357.00,1.0241
5356.00,1.0241
5355.00,1.0241
5354.00,1.0239
5353.00,1.0238
5352.00,1.0237
5351.00,1.0238
5350.00,1.0238
5349.00,1.0238
5348.00,1.0240
5347.00,1.0242
5346.00,1.0243
5345.00,1.0241
5344.00,1.0239
5343.00,1.0239
5342.00,1.0241
5341.00,1.0242
5340.00,1.0242
5339.00,1.0242
5338.00,1.0243
5337.00,1.0243
5336.00,1.0244
5335.00,1.0244
5334.00,1.0244
5333.00,1.0244
5332.00,1.0244
5331.00,1.0245
5330.00,1.0246
5329.00,1.0245
5328.00,1.0243
5327.00,1.0241
5326.00,1.0240
5325.00,1.0240
5324.00,1.0240
5323.00,1.0240
5322.00,1.0240
5321.00,1.0240
5320.00,1.0242
5319.00,1.0244
5318.00,1.0246
5317.00,1.0247
5316.00,1.0248
5315.00,1.0248
5314.00,1.0247
5313.00,1.0246
5312.00,1.0245
5311.00,1.0244
5310.00,1.0245
5309.00,1.0245
5308.00,1.0245
5307.00,1.0245
5306.00,1.0245
5305.00,1.0245
5304.00,1.0244
5303.00,1.0245
5302.00,1.0245
5301.00,1.0246
5300.00,1.0246
5299.00,1.0247
5298.00,1.0247
5297.00,1.0245
5296.00,1.0244
5295.00,1.0243
5294.00,1.0243
5293.00,1.0244
5292.00,1.0244
5291.00,1.0244
5290.00,1.0244
5289.00,1.0246
5288.00,1.0248
5287.00,1.0249
5286.00,1.0250
5285.00,1.0251
5284.00,1.0251
5283.00,1.0251
5282.00,1.0250
5281.00,1.0249
5280.00,1.0248
5279.00,1.0248
5278.00,1.0248
5277.00,1.0249
5276.00,1.0249
5275.00,1.0248
5274.00,1.0248
5273.00,1.0248
5272.00,1.0248
5271.00,1.0248
5270.00,1.0249
5269.00,1.0249
5268.00,1.0250
5267.00,1.0250
5266.00,1.0251
5265.00,1.0250
5264.00,1.0250
5263.00,1.0250
5262.00,1.0249
5261.00,1.0248
5260.00,1.0246
5259.00,1.0244
5258.00,1.0243
5257.00,1.0242
5256.00,1.0240
5255.00,1.0237
5254.00,1.0234
5253.00,1.0233
5252.00,1.0235
5251.00,1.0239
5250.00,1.0244
5249.00,1.0250
5248.00,1.0255
5247.00,1.0259
5246.00,1.0261
5245.00,1.0260
5244.00,1.0258
5243.00,1.0257
5242.00,1.0256
5241.00,1.0255
5240.00,1.0254
5239.00,1.0254
5238.00,1.0255
5237.00,1.0257
5236.00,1.0258
5235.00,1.0259
5234.00,1.0259
5233.00,1.0259
5232.00,1.0259
5231.00,1.0260
5230.00,1.0260
5229.00,1.0260
5228.00,1.0259
5227.00,1.0258
5226.00,1.0256
5225.00,1.0256
5224.00,1.0257
5223.00,1.0259
5222.00,1.0260
5221.00,1.0261
5220.00,1.0261
5219.00,1.0261
5218.00,1.0261
5217.00,1.0261
5216.00,1.0262
5215.00,1.0263
5214.00,1.0264
5213.00,1.0265
5212.00,1.0265
5211.00,1.0265
5210.00,1.0266
5209.00,1.0266
5208.00,1.0266
5207.00,1.0266
5206.00,1.0266
5205.00,1.0266
5204.00,1.0266
5203.00,1.0267
5202.00,1.0266
5201.00,1.0266
5200.00,1.0266
5199.00,1.0267
5198.00,1.0267
5197.00,1.0267
5196.00,1.0267
5195.00,1.0267
5194.00,1.0269
5193.00,1.0270
5192.00,1.0271
5191.00,1.0271
5190.00,1.0272
5189.00,1.0272
5188.00,1.0273
5187.00,1.0273
5186.00,1.0274
5185.00,1.0274
5184.00,1.0274
5183.00,1.0274
5182.00,1.0274
5181.00,1.0274
5180.00,1.0274
5179.00,1.0274
5178.00,1.0274
5177.00,1.0274
5176.00,1.0275
5175.00,1.0276
5174.00,1.0277
5173.00,1.0277
5172.00,1.0277
5171.00,1.0277
5170.00,1.0277
5169.00,1.0276
5168.00,1.0276
5167.00,1.0277
5166.00,1.0277
5165.00,1.0278
5164.00,1.0279
5163.00,1.0280
5162.00,1.0281
5161.00,1.0281
5160.00,1.0281
5159.00,1.0282
5158.00,1.0283
5157.00,1.0283
5156.00,1.0284
5155.00,1.0284
5154.00,1.0285
5153.00,1.0285
5152.00,1.0286
5151.00,1.0288
5150.00,1.0290
5149.00,1.0291
5148.00,1.0291
5147.00,1.0291
5146.00,1.0290
5145.00,1.0289
5144.00,1.0290
5143.00,1.0291
5142.00,1.0291
5141.00,1.0292
5140.00,1.0292
5139.00,1.0292
5138.00,1.0293
5137.00,1.0293
5136.00,1.0294
5135.00,1.0294
5134.00,1.0295
5133.00,1.0295
5132.00,1.0296
5131.00,1.0298
5130.00,1.0300
5129.00,1.0302
5128.00,1.0304
5127.00,1.0304
5126.00,1.0304
5125.00,1.0302
5124.00,1.0301
5123.00,1.0300
5122.00,1.0301
5121.00,1.0302
5120.00,1.0303
5119.00,1.0303
5118.00,1.0303
5117.00,1.0302
5116.00,1.0300
5115.00,1.0300
5114.00,1.0300
5113.00,1.0302
5112.00,1.0303
5111.00,1.0304
5110.00,1.0305
5109.00,1.0305
5108.00,1.0304
5107.00,1.0304
5106.00,1.0303
5105.00,1.0303
5104.00,1.0302
5103.00,1.0303
5102.00,1.0303
5101.00,1.0303
5100.00,1.0303
5099.00,1.0304
5098.00,1.0304
5097.00,1.0304
5096.00,1.0305
5095.00,1.0305
5094.00,1.0305
5093.00,1.0305
5092.00,1.0306
5091.00,1.0307
5090.00,1.0308
5089.00,1.0308
5088.00,1.0309
5087.00,1.0310
5086.00,1.0311
5085.00,1.0311
5084.00,1.0311
5083.00,1.0311
5082.00,1.0311
5081.00,1.0310
5080.00,1.0310
5079.00,1.0311
5078.00,1.0312
5077.00,1.0312
5076.00,1.0313
5075.00,1.0313
5074.00,1.0313
5073.00,1.0312
5072.00,1.0312
5071.00,1.0313
5070.00,1.0313
5069.00,1.0313
5068.00,1.0312
5067.00,1.0310
5066.00,1.0309
5065.00,1.0309
5064.00,1.0311
5063.00,1.0314
5062.00,1.0317
5061.00,1.0320
5060.00,1.0321
5059.00,1.0321
5058.00,1.0319
5057.00,1.0318
5056.00,1.0317
5055.00,1.0318
5054.00,1.0318
5053.00,1.0319
5052.00,1.0319
5051.00,1.0319
5050.00,1.0319
5049.00,1.0320
5048.00,1.0320
5047.00,1.0321
5046.00,1.0321
5045.00,1.0321
5044.00,1.0321
5043.00,1.0321
5042.00,1.0320
5041.00,1.0320
5040.00,1.0320
5039.00,1.0320
5038.00,1.0320
5037.00,1.0319
5036.00,1.0319
5035.00,1.0319
5034.00,1.0320
5033.00,1.0321
5032.00,1.0323
5031.00,1.0324
5030.00,1.0325
5029.00,1.0325
5028.00,1.0325
5027.00,1.0325
5026.00,1.0324
5025.00,1.0324
5024.00,1.0323
5023.00,1.0323
5022.00,1.0323
5021.00,1.0323
5020.00,1.0324
5019.00,1.0325
5018.00,1.0325
5017.00,1.0326
5016.00,1.0327
5015.00,1.0327
5014.00,1.0327
5013.00,1.0327
5012.00,1.0325
5011.00,1.0324
5010.00,1.0322
5009.00,1.0322
5008.00,1.0323
5007.00,1.0324
5006.00,1.0326
5005.00,1.0328
5004.00,1.0329
5003.00,1.0330
5002.00,1.0330
5001.00,1.0329
5000.00,1.0329
4999.00,1.0328
4998.00,1.0328
4997.00,1.0327
4996.00,1.0327
4995.00,1.0328
4994.00,1.0328
4993.00,1.0327
4992.00,1.0327
4991.00,1.0326
4990.00,1.0325
4989.00,1.0324
4988.00,1.0324
4987.00,1.0324
4986.00,1.0325
4985.00,1.0325
4984.00,1.0325
4983.00,1.0325
4982.00,1.0325
4981.00,1.0325
4980.00,1.0324
4979.00,1.0324
4978.00,1.0324
4977.00,1.0324
4976.00,1.0324
4975.00,1.0325
4974.00,1.0325
4973.00,1.0326
4972.00,1.0326
4971.00,1.0327
4970.00,1.0326
4969.00,1.0326
4968.00,1.0325
4967.00,1.0326
4966.00,1.0326
4965.00,1.0326
4964.00,1.0325
4963.00,1.0325
4962.00,1.0325
4961.00,1.0325
4960.00,1.0325
4959.00,1.0326
4958.00,1.0327
4957.00,1.0328
4956.00,1.0329
4955.00,1.0330
4954.00,1.0330
4953.00,1.0330
4952.00,1.0330
4951.00,1.0330
4950.00,1.0330
4949.00,1.0329
4948.00,1.0329
4947.00,1.0329
4946.00,1.0329
4945.00,1.0330
4944.00,1.0330
4943.00,1.0330
4942.00,1.0329
4941.00,1.0328
4940.00,1.0328
4939.00,1.0329
4938.00,1.0329
4937.00,1.0329
4936.00,1.0329
4935.00,1.0329
4934.00,1.0328
4933.00,1.0327
4932.00,1.0327
4931.00,1.0327
4930.00,1.0328
4929.00,1.0328
4928.00,1.0329
4927.00,1.0328
4926.00,1.0328
4925.00,1.0327
4924.00,1.0327
4923.00,1.0327
4922.00,1.0327
4921.00,1.0327
4920.00,1.0327
4919.00,1.0327
4918.00,1.0327
4917.00,1.0327
4916.00,1.0327
4915.00,1.0327
4914.00,1.0327
4913.00,1.0326
4912.00,1.0325
4911.00,1.0324
4910.00,1.0324
4909.00,1.0323
4908.00,1.0322
4907.00,1.0322
4906.00,1.0323
4905.00,1.0323
4904.00,1.0323
4903.00,1.0324
4902.00,1.0324
4901.00,1.0323
4900.00,1.0323
4899.00,1.0323
4898.00,1.0324
4897.00,1.0324
4896.00,1.0324
4895.00,1.0325
4894.00,1.0324
4893.00,1.0324
4892.00,1.0323
4891.00,1.0323
4890.00,1.0323
4889.00,1.0324
4888.00,1.0325
4887.00,1.0325
4886.00,1.0324
4885.00,1.0323
4884.00,1.0322
4883.00,1.0321
4882.00,1.0320
4881.00,1.0320
4880.00,1.0320
4879.00,1.0321
4878.00,1.0322
4877.00,1.0323
4876.00,1.0323
4875.00,1.0323
4874.00,1.0323
4873.00,1.0322
4872.00,1.0321
4871.00,1.0321
4870.00,1.0321
4869.00,1.0321
4868.00,1.0322
4867.00,1.0322
4866.00,1.0323
4865.00,1.0323
4864.00,1.0322
4863.00,1.0321
4862.00,1.0320
4861.00,1.0320
4860.00,1.0321
4859.00,1.0322
4858.00,1.0322
4857.00,1.0322
4856.00,1.0321
4855.00,1.0320
4854.00,1.0320
4853.00,1.0320
4852.00,1.0320
4851.00,1.0321
4850.00,1.0321
4849.00,1.0321
4848.00,1.0320
4847.00,1.0319
4846.00,1.0318
4845.00,1.0317
4844.00,1.0316
4843.00,1.0316
4842.00,1.0316
4841.00,1.0317
4840.00,1.0317
4839.00,1.0317
4838.00,1.0317
4837.00,1.0316
4836.00,1.0316
4835.00,1.0315
4834.00,1.0315
4833.00,1.0314
4832.00,1.0314
4831.00,1.0315
4830.00,1.0315
4829.00,1.0316
4828.00,1.0315
4827.00,1.0314
4826.00,1.0313
4825.00,1.0313
4824.00,1.0313
4823.00,1.0313
4822.00,1.0313
4821.00,1.0312
4820.00,1.0312
4819.00,1.0311
4818.00,1.0309
4817.00,1.0309
4816.00,1.0308
4815.00,1.0309
4814.00,1.0309
4813.00,1.0309
4812.00,1.0310
4811.00,1.0310
4810.00,1.0311
4809.00,1.0311
4808.00,1.0311
4807.00,1.0310
4806.00,1.0309
4805.00,1.0308
4804.00,1.0308
4803.00,1.0308
4802.00,1.0308
4801.00,1.0308
4800.00,1.0307
4799.00,1.0307
4798.00,1.0306
4797.00,1.0305
4796.00,1.0305
4795.00,1.0305
4794.00,1.0305
4793.00,1.0305
4792.00,1.0305
4791.00,1.0304
4790.00,1.0304
4789.00,1.0303
4788.00,1.0303
4787.00,1.0303
4786.00,1.0302
4785.00,1.0301
4784.00,1.0300
4783.00,1.0300
4782.00,1.0299
4781.00,1.0299
4780.00,1.0299
4779.00,1.0299
4778.00,1.0298
4777.00,1.0298
4776.00,1.0297
4775.00,1.0296
4774.00,1.0296
4773.00,1.0295
4772.00,1.0295
4771.00,1.0295
4770.00,1.0296
4769.00,1.0297
4768.00,1.0296
4767.00,1.0296
4766.00,1.0294
4765.00,1.0292
4764.00,1.0290
4763.00,1.0289
4762.00,1.0289
4761.00,1.0289
4760.00,1.0290
4759.00,1.0290
4758.00,1.0291
4757.00,1.0291
4756.00,1.0292
4755.00,1.0292
4754.00,1.0291
4753.00,1.0290
4752.00,1.0289
4751.00,1.0287
4750.00,1.0285
4749.00,1.0282
4748.00,1.0281
4747.00,1.0279
4746.00,1.0278
4745.00,1.0277
4744.00,1.0276
4743.00,1.0274
4742.00,1.0273
4741.00,1.0272
4740.00,1.0272
4739.00,1.0272
4738.00,1.0272
4737.00,1.0271
4736.00,1.0270
4735.00,1.0268
4734.00,1.0267
4733.00,1.0266
4732.00,1.0265
4731.00,1.0265
4730.00,1.0264
4729.00,1.0264
4728.00,1.0264
4727.00,1.0264
4726.00,1.0264
4725.00,1.0263
4724.00,1.0262
4723.00,1.0262
4722.00,1.0261
4721.00,1.0261
4720.00,1.0261
4719.00,1.0261
4718.00,1.0261
4717.00,1.0260
4716.00,1.0260
4715.00,1.0260
4714.00,1.0260
4713.00,1.0260
4712.00,1.0260
4711.00,1.0260
4710.00,1.0259
4709.00,1.0259
4708.00,1.0259
4707.00,1.0259
4706.00,1.0259
4705.00,1.0259
4704.00,1.0259
4703.00,1.0260
4702.00,1.0260
4701.00,1.0260
4700.00,1.0261
4699.00,1.0262
4698.00,1.0262
4697.00,1.0262
4696.00,1.0262
4695.00,1.0261
4694.00,1.0260
4693.00,1.0258
4692.00,1.0256
4691.00,1.0255
4690.00,1.0254
4689.00,1.0255
4688.00,1.0256
4687.00,1.0257
4686.00,1.0257
4685.00,1.0256
4684.00,1.0254
4683.00,1.0253
4682.00,1.0252
4681.00,1.0252
4680.00,1.0251
4679.00,1.0251
4678.00,1.0250
4677.00,1.0250
4676.00,1.0251
4675.00,1.0251
4674.00,1.0251
4673.00,1.0251
4672.00,1.0251
4671.00,1.0251
4670.00,1.0251
4669.00,1.0251
4668.00,1.0251
4667.00,1.0251
4666.00,1.0251
4665.00,1.0251
4664.00,1.0251
4663.00,1.0251
4662.00,1.0250
4661.00,1.0250
4660.00,1.0250
4659.00,1.0250
4658.00,1.0250
4657.00,1.0251
4656.00,1.0251
4655.00,1.0251
4654.00,1.0250
4653.00,1.0250
4652.00,1.0250
4651.00,1.0250
4650.00,1.0250
4649.00,1.0251
4648.00,1.0251
4647.00,1.0250
4646.00,1.0250
4645.00,1.0250
4644.00,1.0250
4643.00,1.0250
4642.00,1.0250
4641.00,1.0250
4640.00,1.0250
4639.00,1.0249
4638.00,1.0249
4637.00,1.0249
4636.00,1.0250
4635.00,1.0250
4634.00,1.0250
4633.00,1.0248
4632.00,1.0246
4631.00,1.0244
4630.00,1.0242
4629.00,1.0241
4628.00,1.0241
4627.00,1.0243
4626.00,1.0246
4625.00,1.0248
4624.00,1.0250
4623.00,1.0251
4622.00,1.0251
4621.00,1.0251
4620.00,1.0250
4619.00,1.0249
4618.00,1.0248
4617.00,1.0246
4616.00,1.0246
4615.00,1.0246
4614.00,1.0247
4613.00,1.0248
4612.00,1.0249
4611.00,1.0249
4610.00,1.0248
4609.00,1.0248
4608.00,1.0248
4607.00,1.0249
4606.00,1.0250
4605.00,1.0251
4604.00,1.0251
4603.00,1.0252
4602.00,1.0252
4601.00,1.0252
4600.00,1.0251
4599.00,1.0251
4598.00,1.0250
4597.00,1.0250
4596.00,1.0250
4595.00,1.0250
4594.00,1.0250
4593.00,1.0250
4592.00,1.0249
4591.00,1.0248
4590.00,1.0248
4589.00,1.0248
4588.00,1.0248
4587.00,1.0248
4586.00,1.0248
4585.00,1.0248
4584.00,1.0248
4583.00,1.0249
4582.00,1.0249
4581.00,1.0249
4580.00,1.0249
4579.00,1.0250
4578.00,1.0250
4577.00,1.0250
4576.00,1.0250
4575.00,1.0249
4574.00,1.0249
4573.00,1.0248
4572.00,1.0247
4571.00,1.0247
4570.00,1.0247
4569.00,1.0247
4568.00,1.0248
4567.00,1.0248
4566.00,1.0250
4565.00,1.0251
4564.00,1.0253
4563.00,1.0254
4562.00,1.0254
4561.00,1.0253
4560.00,1.0251
4559.00,1.0249
4558.00,1.0247
4557.00,1.0246
4556.00,1.0246
4555.00,1.0247
4554.00,1.0247
4553.00,1.0248
4552.00,1.0249
4551.00,1.0249
4550.00,1.0249
4549.00,1.0249
4548.00,1.0249
4547.00,1.0248
4546.00,1.0248
4545.00,1.0248
4544.00,1.0247
4543.00,1.0248
4542.00,1.0248
4541.00,1.0248
4540.00,1.0248
4539.00,1.0248
4538.00,1.0248
4537.00,1.0247
4536.00,1.0247
4535.00,1.0247
4534.00,1.0247
4533.00,1.0246
4532.00,1.0246
4531.00,1.0245
4530.00,1.0244
4529.00,1.0243
4528.00,1.0243
4527.00,1.0244
4526.00,1.0245
4525.00,1.0246
4524.00,1.0247
4523.00,1.0246
4522.00,1.0246
4521.00,1.0245
4520.00,1.0245
4519.00,1.0245
4518.00,1.0245
4517.00,1.0245
4516.00,1.0245
4515.00,1.0246
4514.00,1.0246
4513.00,1.0247
4512.00,1.0247
4511.00,1.0248
4510.00,1.0248
4509.00,1.0248
4508.00,1.0247
4507.00,1.0246
4506.00,1.0244
4505.00,1.0242
4504.00,1.0241
4503.00,1.0241
4502.00,1.0241
4501.00,1.0241
4500.00,1.0242
4499.00,1.0242
4498.00,1.0242
4497.00,1.0242
4496.00,1.0243
4495.00,1.0244
4494.00,1.0244
4493.00,1.0243
4492.00,1.0242
4491.00,1.0242
4490.00,1.0242
4489.00,1.0242
4488.00,1.0243
4487.00,1.0245
4486.00,1.0246
4485.00,1.0246
4484.00,1.0247
4483.00,1.0247
4482.00,1.0247
4481.00,1.0246
4480.00,1.0246
4479.00,1.0246
4478.00,1.0245
4477.00,1.0245
4476.00,1.0244
4475.00,1.0244
4474.00,1.0244
4473.00,1.0245
4472.00,1.0245
4471.00,1.0245
4470.00,1.0246
4469.00,1.0245
4468.00,1.0245
4467.00,1.0245
4466.00,1.0244
4465.00,1.0244
4464.00,1.0244
4463.00,1.0245
4462.00,1.0245
4461.00,1.0245
4460.00,1.0244
4459.00,1.0245
4458.00,1.0245
4457.00,1.0245
4456.00,1.0246
4455.00,1.0246
4454.00,1.0245
4453.00,1.0245
4452.00,1.0245
4451.00,1.0244
4450.00,1.0244
4449.00,1.0245
4448.00,1.0245
4447.00,1.0246
4446.00,1.0247
4445.00,1.0247
4444.00,1.0246
4443.00,1.0245
4442.00,1.0244
4441.00,1.0244
4440.00,1.0244
4439.00,1.0244
4438.00,1.0245
4437.00,1.0244
4436.00,1.0243
4435.00,1.0243
4434.00,1.0243
4433.00,1.0243
4432.00,1.0243
4431.00,1.0243
4430.00,1.0244
4429.00,1.0244
4428.00,1.0244
4427.00,1.0245
4426.00,1.0245
4425.00,1.0245
4424.00,1.0245
4423.00,1.0245
4422.00,1.0245
4421.00,1.0245
4420.00,1.0245
4419.00,1.0246
4418.00,1.0246
4417.00,1.0246
4416.00,1.0246
4415.00,1.0246
4414.00,1.0245
4413.00,1.0244
4412.00,1.0244
4411.00,1.0243
4410.00,1.0243
4409.00,1.0243
4408.00,1.0243
4407.00,1.0244
4406.00,1.0244
4405.00,1.0244
4404.00,1.0245
4403.00,1.0245
4402.00,1.0246
4401.00,1.0247
4400.00,1.0248
4399.00,1.0249
4398.00,1.0249
4397.00,1.0248
4396.00,1.0247
4395.00,1.0246
4394.00,1.0246
4393.00,1.0246
4392.00,1.0246
4391.00,1.0246
4390.00,1.0246
4389.00,1.0246
4388.00,1.0246
4387.00,1.0246
4386.00,1.0245
4385.00,1.0245
4384.00,1.0245
4383.00,1.0245
4382.00,1.0247
4381.00,1.0248
4380.00,1.0250
4379.00,1.0250
4378.00,1.0249
4377.00,1.0247
4376.00,1.0246
4375.00,1.0246
4374.00,1.0247
4373.00,1.0250
4372.00,1.0252
4371.00,1.0253
4370.00,1.0254
4369.00,1.0253
4368.00,1.0252
4367.00,1.0251
4366.00,1.0251
4365.00,1.0251
4364.00,1.0251
4363.00,1.0251
4362.00,1.0252
4361.00,1.0252
4360.00,1.0253
4359.00,1.0253
4358.00,1.0253
4357.00,1.0253
4356.00,1.0252
4355.00,1.0252
4354.00,1.0252
4353.00,1.0252
4352.00,1.0252
4351.00,1.0251
4350.00,1.0251
4349.00,1.0251
4348.00,1.0252
4347.00,1.0253
4346.00,1.0255
4345.00,1.0256
4344.00,1.0255
4343.00,1.0254
4342.00,1.0253
4341.00,1.0252
4340.00,1.0252
4339.00,1.0252
4338.00,1.0253
4337.00,1.0254
4336.00,1.0254
4335.00,1.0254
4334.00,1.0254
4333.00,1.0253
4332.00,1.0253
4331.00,1.0254
4330.00,1.0254
4329.00,1.0255
4328.00,1.0255
4327.00,1.0255
4326.00,1.0255
4325.00,1.0255
4324.00,1.0255
4323.00,1.0254
4322.00,1.0254
4321.00,1.0254
4320.00,1.0254
4319.00,1.0255
4318.00,1.0256
4317.00,1.0256
4316.00,1.0256
4315.00,1.0254
4314.00,1.0253
4313.00,1.0252
4312.00,1.0252
4311.00,1.0252
4310.00,1.0253
4309.00,1.0254
4308.00,1.0254
4307.00,1.0254
4306.00,1.0254
4305.00,1.0254
4304.00,1.0255
4303.00,1.0255
4302.00,1.0256
4301.00,1.0256
4300.00,1.0257
4299.00,1.0257
4298.00,1.0257
4297.00,1.0257
4296.00,1.0257
4295.00,1.0257
4294.00,1.0258
4293.00,1.0258
4292.00,1.0257
4291.00,1.0257
4290.00,1.0256
4289.00,1.0256
4288.00,1.0256
4287.00,1.0257
4286.00,1.0257
4285.00,1.0258
4284.00,1.0259
4283.00,1.0260
4282.00,1.0261
4281.00,1.0261
4280.00,1.0262
4279.00,1.0262
4278.00,1.0262
4277.00,1.0261
4276.00,1.0261
4275.00,1.0261
4274.00,1.0261
4273.00,1.0261
4272.00,1.0261
4271.00,1.0262
4270.00,1.0262
4269.00,1.0263
4268.00,1.0262
4267.00,1.0262
4266.00,1.0261
4265.00,1.0260
4264.00,1.0260
4263.00,1.0261
4262.00,1.0261
4261.00,1.0261
4260.00,1.0260
4259.00,1.0260
4258.00,1.0260
4257.00,1.0259
4256.00,1.0258
4255.00,1.0255
4254.00,1.0252
4253.00,1.0249
4252.00,1.0249
4251.00,1.0251
4250.00,1.0255
4249.00,1.0258
4248.00,1.0261
4247.00,1.0263
4246.00,1.0263
4245.00,1.0264
4244.00,1.0264
4243.00,1.0264
4242.00,1.0264
4241.00,1.0265
4240.00,1.0264
4239.00,1.0264
4238.00,1.0263
4237.00,1.0263
4236.00,1.0262
4235.00,1.0262
4234.00,1.0263
4233.00,1.0263
4232.00,1.0264
4231.00,1.0264
4230.00,1.0264
4229.00,1.0264
4228.00,1.0265
4227.00,1.0265
4226.00,1.0265
4225.00,1.0264
4224.00,1.0262
4223.00,1.0261
4222.00,1.0260
4221.00,1.0261
4220.00,1.0262
4219.00,1.0262
4218.00,1.0262
4217.00,1.0261
4216.00,1.0261
4215.00,1.0262
4214.00,1.0263
4213.00,1.0264
4212.00,1.0263
4211.00,1.0263
4210.00,1.0262
4209.00,1.0262
4208.00,1.0262
4207.00,1.0262
4206.00,1.0262
4205.00,1.0262
4204.00,1.0262
4203.00,1.0263
4202.00,1.0263
4201.00,1.0263
4200.00,1.0264
4199.00,1.0264
4198.00,1.0264
4197.00,1.0263
4196.00,1.0262
4195.00,1.0260
4194.00,1.0259
4193.00,1.0259
4192.00,1.0259
4191.00,1.0260
4190.00,1.0260
4189.00,1.0261
4188.00,1.0262
4187.00,1.0263
4186.00,1.0264
4185.00,1.0263
4184.00,1.0262
4183.00,1.0261
4182.00,1.0261
4181.00,1.0261
4180.00,1.0262
4179.00,1.0263
4178.00,1.0263
4177.00,1.0263
4176.00,1.0263
4175.00,1.0263
4174.00,1.0263
4173.00,1.0263
4172.00,1.0264
4171.00,1.0264
4170.00,1.0264
4169.00,1.0264
4168.00,1.0264
4167.00,1.0263
4166.00,1.0262
4165.00,1.0261
4164.00,1.0260
4163.00,1.0259
4162.00,1.0258
4161.00,1.0258
4160.00,1.0258
4159.00,1.0259
4158.00,1.0260
4157.00,1.0260
4156.00,1.0261
4155.00,1.0261
4154.00,1.0261
4153.00,1.0261
4152.00,1.0260
4151.00,1.0260
4150.00,1.0260
4149.00,1.0260
4148.00,1.0259
4147.00,1.0259
4146.00,1.0259
4145.00,1.0260
4144.00,1.0260
4143.00,1.0260
4142.00,1.0260
4141.00,1.0260
4140.00,1.0259
4139.00,1.0259
4138.00,1.0259
4137.00,1.0258
4136.00,1.0258
4135.00,1.0258
4134.00,1.0258
4133.00,1.0258
4132.00,1.0258
4131.00,1.0260
4130.00,1.0263
4129.00,1.0268
4128.00,1.0271
4127.00,1.0272
4126.00,1.0270
4125.00,1.0266
4124.00,1.0261
4123.00,1.0258
4122.00,1.0256
4121.00,1.0255
4120.00,1.0255
4119.00,1.0255
4118.00,1.0255
4117.00,1.0255
4116.00,1.0255
4115.00,1.0255
4114.00,1.0256
4113.00,1.0257
4112.00,1.0257
4111.00,1.0257
4110.00,1.0257
4109.00,1.0257
4108.00,1.0257
4107.00,1.0257
4106.00,1.0256
4105.00,1.0256
4104.00,1.0255
4103.00,1.0255
4102.00,1.0255
4101.00,1.0254
4100.00,1.0254
4099.00,1.0253
4098.00,1.0252
4097.00,1.0251
4096.00,1.0251
4095.00,1.0252
4094.00,1.0252
4093.00,1.0253
4092.00,1.0254
4091.00,1.0254
4090.00,1.0255
4089.00,1.0255
4088.00,1.0256
4087.00,1.0256
4086.00,1.0256
4085.00,1.0255
4084.00,1.0254
4083.00,1.0254
4082.00,1.0253
4081.00,1.0252
4080.00,1.0253
4079.00,1.0254
4078.00,1.0255
4077.00,1.0255
4076.00,1.0255
4075.00,1.0255
4074.00,1.0254
4073.00,1.0255
4072.00,1.0255
4071.00,1.0256
4070.00,1.0255
4069.00,1.0254
4068.00,1.0252
4067.00,1.0250
4066.00,1.0249
4065.00,1.0249
4064.00,1.0249
4063.00,1.0250
4062.00,1.0251
4061.00,1.0252
4060.00,1.0252
4059.00,1.0251
4058.00,1.0250
4057.00,1.0249
4056.00,1.0249
4055.00,1.0250
4054.00,1.0251
4053.00,1.0251
4052.00,1.0251
4051.00,1.0251
4050.00,1.0250
4049.00,1.0249
4048.00,1.0249
4047.00,1.0249
4046.00,1.0250
4045.00,1.0251
4044.00,1.0251
4043.00,1.0251
4042.00,1.0250
4041.00,1.0250
4040.00,1.0250
4039.00,1.0249
4038.00,1.0249
4037.00,1.0248
4036.00,1.0247
4035.00,1.0247
4034.00,1.0246
4033.00,1.0247
4032.00,1.0247
4031.00,1.0247
4030.00,1.0248
4029.00,1.0248
4028.00,1.0248
4027.00,1.0247
4026.00,1.0246
4025.00,1.0245
4024.00,1.0244
4023.00,1.0245
4022.00,1.0245
4021.00,1.0246
4020.00,1.0247
4019.00,1.0246
4018.00,1.0245
4017.00,1.0244
4016.00,1.0244
4015.00,1.0244
4014.00,1.0244
4013.00,1.0244
4012.00,1.0244
4011.00,1.0242
4010.00,1.0240
4009.00,1.0239
4008.00,1.0238
4007.00,1.0238
4006.00,1.0239
4005.00,1.0241
4004.00,1.0244
4003.00,1.0247
4002.00,1.0250
4001.00,1.0251
4000.00,1.0250
3999.00,1.0249
3998.00,1.0247
3997.00,1.0245
3996.00,1.0243
3995.00,1.0241
3994.00,1.0239
3993.00,1.0238
3992.00,1.0238
3991.00,1.0239
3990.00,1.0240
3989.00,1.0240
3988.00,1.0241
3987.00,1.0241
3986.00,1.0241
3985.00,1.0240
3984.00,1.0239
3983.00,1.0239
3982.00,1.0239
3981.00,1.0239
3980.00,1.0239
3979.00,1.0238
3978.00,1.0236
3977.00,1.0235
3976.00,1.0235
3975.00,1.0236
3974.00,1.0237
3973.00,1.0238
3972.00,1.0238
3971.00,1.0237
3970.00,1.0235
3969.00,1.0234
3968.00,1.0233
3967.00,1.0233
3966.00,1.0233
3965.00,1.0233
3964.00,1.0233
3963.00,1.0233
3962.00,1.0233
3961.00,1.0233
3960.00,1.0233
3959.00,1.0233
3958.00,1.0233
3957.00,1.0232
3956.00,1.0231
3955.00,1.0231
3954.00,1.0231
3953.00,1.0231
3952.00,1.0230
3951.00,1.0230
3950.00,1.0230
3949.00,1.0229
3948.00,1.0229
3947.00,1.0229
3946.00,1.0230
3945.00,1.0231
3944.00,1.0231
3943.00,1.0231
3942.00,1.0231
3941.00,1.0230
3940.00,1.0229
3939.00,1.0227
3938.00,1.0225
3937.00,1.0224
3936.00,1.0224
3935.00,1.0223
3934.00,1.0222
3933.00,1.0221
3932.00,1.0221
3931.00,1.0221
3930.00,1.0222
3929.00,1.0222
3928.00,1.0223
3927.00,1.0222
3926.00,1.0222
3925.00,1.0221
3924.00,1.0221
3923.00,1.0220
3922.00,1.0219
3921.00,1.0217
3920.00,1.0216
3919.00,1.0215
3918.00,1.0215
3917.00,1.0214
3916.00,1.0214
3915.00,1.0215
3914.00,1.0215
3913.00,1.0215
3912.00,1.0215
3911.00,1.0216
3910.00,1.0217
3909.00,1.0218
3908.00,1.0218
3907.00,1.0217
3906.00,1.0216
3905.00,1.0213
3904.00,1.0209
3903.00,1.0206
3902.00,1.0204
3901.00,1.0201
3900.00,1.0201
3899.00,1.0202
3898.00,1.0204
3897.00,1.0205
3896.00,1.0206
3895.00,1.0206
3894.00,1.0206
3893.00,1.0205
3892.00,1.0203
3891.00,1.0203
3890.00,1.0204
3889.00,1.0203
3888.00,1.0201
3887.00,1.0198
3886.00,1.0198
3885.00,1.0200
3884.00,1.0204
3883.00,1.0204
3882.00,1.0202
3881.00,1.0198
3880.00,1.0195
3879.00,1.0193
3878.00,1.0191
3877.00,1.0190
3876.00,1.0190
3875.00,1.0191
3874.00,1.0194
3873.00,1.0196
3872.00,1.0194
3871.00,1.0190
3870.00,1.0187
3869.00,1.0189
3868.00,1.0191
3867.00,1.0192
3866.00,1.0192
3865.00,1.0193
3864.00,1.0194
3863.00,1.0193
3862.00,1.0190
3861.00,1.0188
3860.00,1.0187
3859.00,1.0186
3858.00,1.0186
3857.00,1.0186
3856.00,1.0186
3855.00,1.0184
3854.00,1.0180
3853.00,1.0177
3852.00,1.0177
3851.00,1.0176
3850.00,1.0175
3849.00,1.0176
3848.00,1.0178
3847.00,1.0180
3846.00,1.0181
3845.00,1.0183
3844.00,1.0183
3843.00,1.0182
3842.00,1.0181
3841.00,1.0178
3840.00,1.0176
3839.00,1.0176
3838.00,1.0176
3837.00,1.0176
3836.00,1.0175
3835.00,1.0174
3834.00,1.0173
3833.00,1.0172
3832.00,1.0171
3831.00,1.0172
3830.00,1.0173
3829.00,1.0173
3828.00,1.0172
3827.00,1.0170
3826.00,1.0170
3825.00,1.0171
3824.00,1.0170
3823.00,1.0167
3822.00,1.0163
3821.00,1.0162
3820.00,1.0163
3819.00,1.0163
3818.00,1.0161
3817.00,1.0158
3816.00,1.0158
3815.00,1.0161
3814.00,1.0162
3813.00,1.0162
3812.00,1.0162
3811.00,1.0162
3810.00,1.0163
3809.00,1.0161
3808.00,1.0158
3807.00,1.0157
3806.00,1.0158
3805.00,1.0158
3804.00,1.0155
3803.00,1.0152
3802.00,1.0151
3801.00,1.0154
3800.00,1.0157
3799.00,1.0157
3798.00,1.0155
3797.00,1.0153
3796.00,1.0152
3795.00,1.0153
3794.00,1.0153
3793.00,1.0152
3792.00,1.0152
3791.00,1.0153
3790.00,1.0153
3789.00,1.0153
3788.00,1.0152
3787.00,1.0152
3786.00,1.0151
3785.00,1.0151
3784.00,1.0150
3783.00,1.0150
3782.00,1.0149
3781.00,1.0147
3780.00,1.0145
3779.00,1.0145
3778.00,1.0144
3777.00,1.0144
3776.00,1.0142
3775.00,1.0141
3774.00,1.0142
3773.00,1.0142
3772.00,1.0140
3771.00,1.0137
3770.00,1.0136
3769.00,1.0137
3768.00,1.0137
3767.00,1.0136
3766.00,1.0134
3765.00,1.0134
3764.00,1.0135
3763.00,1.0136
3762.00,1.0135
3761.00,1.0134
3760.00,1.0135
3759.00,1.0135
3758.00,1.0134
3757.00,1.0132
3756.00,1.0128
3755.00,1.0125
3754.00,1.0123
3753.00,1.0123
3752.00,1.0123
3751.00,1.0122
3750.00,1.0118
3749.00,1.0115
3748.00,1.0113
3747.00,1.0112
3746.00,1.0110
3745.00,1.0108
3744.00,1.0110
3743.00,1.0114
3742.00,1.0114
3741.00,1.0112
3740.00,1.0112
3739.00,1.0114
3738.00,1.0115
3737.00,1.0115
3736.00,1.0115
3735.00,1.0115
3734.00,1.0115
3733.00,1.0114
3732.00,1.0114
3731.00,1.0115
3730.00,1.0117
3729.00,1.0117
3728.00,1.0116
3727.00,1.0115
3726.00,1.0116
3725.00,1.0116
3724.00,1.0116
3723.00,1.0116
3722.00,1.0117
3721.00,1.0119
3720.00,1.0121
3719.00,1.0121
3718.00,1.0121
3717.00,1.0120
3716.00,1.0119
3715.00,1.0118
3714.00,1.0116
3713.00,1.0116
3712.00,1.0116
3711.00,1.0115
3710.00,1.0115
3709.00,1.0116
3708.00,1.0117
3707.00,1.0118
3706.00,1.0120
3705.00,1.0121
3704.00,1.0123
3703.00,1.0123
3702.00,1.0123
3701.00,1.0123
3700.00,1.0123
3699.00,1.0121
3698.00,1.0120
3697.00,1.0120
3696.00,1.0121
3695.00,1.0123
3694.00,1.0123
3693.00,1.0123
3692.00,1.0121
3691.00,1.0119
3690.00,1.0116
3689.00,1.0114
3688.00,1.0114
3687.00,1.0117
3686.00,1.0120
3685.00,1.0121
3684.00,1.0123
3683.00,1.0124
3682.00,1.0126
3681.00,1.0127
3680.00,1.0127
3679.00,1.0127
3678.00,1.0126
3677.00,1.0123
3676.00,1.0119
3675.00,1.0119
3674.00,1.0122
3673.00,1.0124
3672.00,1.0123
3671.00,1.0122
3670.00,1.0124
3669.00,1.0127
3668.00,1.0130
3667.00,1.0131
3666.00,1.0132
3665.00,1.0134
3664.00,1.0136
3663.00,1.0137
3662.00,1.0138
3661.00,1.0139
3660.00,1.0141
3659.00,1.0142
3658.00,1.0142
3657.00,1.0143
3656.00,1.0145
3655.00,1.0148
3654.00,1.0149
3653.00,1.0148
3652.00,1.0145
3651.00,1.0144
3650.00,1.0145
3649.00,1.0146
3648.00,1.0147
3647.00,1.0149
3646.00,1.0152
3645.00,1.0156
3644.00,1.0159
3643.00,1.0161
3642.00,1.0164
3641.00,1.0167
3640.00,1.0170
3639.00,1.0171
3638.00,1.0173
3637.00,1.0174
3636.00,1.0175
3635.00,1.0175
3634.00,1.0176
3633.00,1.0177
3632.00,1.0177
3631.00,1.0174
3630.00,1.0169
3629.00,1.0167
3628.00,1.0169
3627.00,1.0174
3626.00,1.0179
3625.00,1.0184
3624.00,1.0189
3623.00,1.0194
3622.00,1.0198
3621.00,1.0200
3620.00,1.0201
3619.00,1.0203
3618.00,1.0204
3617.00,1.0205
3616.00,1.0205
3615.00,1.0205
3614.00,1.0206
3613.00,1.0208
3612.00,1.0210
3611.00,1.0211
3610.00,1.0212
3609.00,1.0212
3608.00,1.0214
3607.00,1.0217
3606.00,1.0221
3605.00,1.0224
3604.00,1.0227
3603.00,1.0229
3602.00,1.0232
3601.00,1.0234
3600.00,1.0236
3599.00,1.0239
3598.00,1.0241
3597.00,1.0243
3596.00,1.0244
3595.00,1.0245
3594.00,1.0246
3593.00,1.0247
3592.00,1.0247
3591.00,1.0248
3590.00,1.0248
3589.00,1.0248
3588.00,1.0248
3587.00,1.0250
3586.00,1.0253
3585.00,1.0255
3584.00,1.0258
3583.00,1.0260
3582.00,1.0262
3581.00,1.0264
3580.00,1.0265
3579.00,1.0268
3578.00,1.0270
3577.00,1.0272
3576.00,1.0273
3575.00,1.0274
3574.00,1.0275
3573.00,1.0275
3572.00,1.0275
3571.00,1.0276
3570.00,1.0277
3569.00,1.0278
3568.00,1.0278
3567.00,1.0278
3566.00,1.0277
3565.00,1.0277
3564.00,1.0276
3563.00,1.0276
3562.00,1.0276
3561.00,1.0277
3560.00,1.0280
3559.00,1.0283
3558.00,1.0287
3557.00,1.0290
3556.00,1.0292
3555.00,1.0293
3554.00,1.0293
3553.00,1.0292
3552.00,1.0291
3551.00,1.0291
3550.00,1.0292
3549.00,1.0292
3548.00,1.0291
3547.00,1.0290
3546.00,1.0289
3545.00,1.0290
3544.00,1.0291
3543.00,1.0293
3542.00,1.0295
3541.00,1.0297
3540.00,1.0299
3539.00,1.0300
3538.00,1.0299
3537.00,1.0299
3536.00,1.0299
3535.00,1.0299
3534.00,1.0300
3533.00,1.0301
3532.00,1.0302
3531.00,1.0303
3530.00,1.0303
3529.00,1.0303
3528.00,1.0303
3527.00,1.0303
3526.00,1.0303
3525.00,1.0303
3524.00,1.0303
3523.00,1.0304
3522.00,1.0305
3521.00,1.0307
3520.00,1.0308
3519.00,1.0310
3518.00,1.0311
3517.00,1.0313
3516.00,1.0314
3515.00,1.0315
3514.00,1.0316
3513.00,1.0317
3512.00,1.0319
3511.00,1.0321
3510.00,1.0323
3509.00,1.0325
3508.00,1.0326
3507.00,1.0328
3506.00,1.0330
3505.00,1.0333
3504.00,1.0336
3503.00,1.0338
3502.00,1.0339
3501.00,1.0338
3500.00,1.0337
3499.00,1.0338
3498.00,1.0340
3497.00,1.0342
3496.00,1.0346
3495.00,1.0349
3494.00,1.0352
3493.00,1.0355
3492.00,1.0358
3491.00,1.0361
3490.00,1.0363
3489.00,1.0365
3488.00,1.0367
3487.00,1.0368
3486.00,1.0370
3485.00,1.0372
3484.00,1.0375
3483.00,1.0377
3482.00,1.0380
3481.00,1.0383
3480.00,1.0385
3479.00,1.0388
3478.00,1.0391
3477.00,1.0394
3476.00,1.0398
3475.00,1.0401
3474.00,1.0404
3473.00,1.0406
3472.00,1.0408
3471.00,1.0410
3470.00,1.0411
3469.00,1.0412
3468.00,1.0414
3467.00,1.0417
3466.00,1.0422
3465.00,1.0426
3464.00,1.0431
3463.00,1.0435
3462.00,1.0438
3461.00,1.0441
3460.00,1.0443
3459.00,1.0446
3458.00,1.0450
3457.00,1.0453
3456.00,1.0455
3455.00,1.0458
3454.00,1.0460
3453.00,1.0464
3452.00,1.0468
3451.00,1.0472
3450.00,1.0475
3449.00,1.0476
3448.00,1.0478
3447.00,1.0480
3446.00,1.0482
3445.00,1.0485
3444.00,1.0488
3443.00,1.0491
3442.00,1.0495
3441.00,1.0499
3440.00,1.0503
3439.00,1.0506
3438.00,1.0510
3437.00,1.0513
3436.00,1.0515
3435.00,1.0516
3434.00,1.0518
3433.00,1.0520
3432.00,1.0524
3431.00,1.0528
3430.00,1.0532
3429.00,1.0536
3428.00,1.0539
3427.00,1.0542
3426.00,1.0544
3425.00,1.0547
3424.00,1.0549
3423.00,1.0550
3422.00,1.0551
3421.00,1.0553
3420.00,1.0556
3419.00,1.0559
3418.00,1.0561
3417.00,1.0563
3416.00,1.0564
3415.00,1.0565
3414.00,1.0566
3413.00,1.0568
3412.00,1.0571
3411.00,1.0573
3410.00,1.0575
3409.00,1.0576
3408.00,1.0578
3407.00,1.0579
3406.00,1.0580
3405.00,1.0581
3404.00,1.0582
3403.00,1.0583
3402.00,1.0584
3401.00,1.0585
3400.00,1.0586
3399.00,1.0587
3398.00,1.0588
3397.00,1.0590
3396.00,1.0592
3395.00,1.0594
3394.00,1.0595
3393.00,1.0595
3392.00,1.0596
3391.00,1.0597
3390.00,1.0599
3389.00,1.0601
3388.00,1.0602
3387.00,1.0604
3386.00,1.0604
3385.00,1.0605
3384.00,1.0606
3383.00,1.0607
3382.00,1.0608
3381.00,1.0608
3380.00,1.0608
3379.00,1.0608
3378.00,1.0606
3377.00,1.0605
3376.00,1.0606
3375.00,1.0607
3374.00,1.0608
3373.00,1.0608
3372.00,1.0608
3371.00,1.0608
3370.00,1.0609
3369.00,1.0611
3368.00,1.0613
3367.00,1.0614
3366.00,1.0616
3365.00,1.0617
3364.00,1.0618
3363.00,1.0619
3362.00,1.0619
3361.00,1.0618
3360.00,1.0618
3359.00,1.0618
3358.00,1.0619
3357.00,1.0621
3356.00,1.0622
3355.00,1.0623
3354.00,1.0624
3353.00,1.0624
3352.00,1.0624
3351.00,1.0624
3350.00,1.0624
3349.00,1.0625
3348.00,1.0626
3347.00,1.0627
3346.00,1.0628
3345.00,1.0629
3344.00,1.0630
3343.00,1.0630
3342.00,1.0630
3341.00,1.0628
3340.00,1.0627
3339.00,1.0626
3338.00,1.0627
3337.00,1.0628
3336.00,1.0629
3335.00,1.0629
3334.00,1.0630
3333.00,1.0630
3332.00,1.0630
3331.00,1.0631
3330.00,1.0632
3329.00,1.0633
3328.00,1.0633
3327.00,1.0634
3326.00,1.0634
3325.00,1.0635
3324.00,1.0634
3323.00,1.0634
3322.00,1.0634
3321.00,1.0634
3320.00,1.0633
3319.00,1.0631
3318.00,1.0630
3317.00,1.0632
3316.00,1.0635
3315.00,1.0640
3314.00,1.0643
3313.00,1.0644
3312.00,1.0643
3311.00,1.0641
3310.00,1.0639
3309.00,1.0638
3308.00,1.0637
3307.00,1.0637
3306.00,1.0639
3305.00,1.0642
3304.00,1.0644
3303.00,1.0646
3302.00,1.0647
3301.00,1.0647
3300.00,1.0647
3299.00,1.0647
3298.00,1.0647
3297.00,1.0647
3296.00,1.0648
3295.00,1.0649
3294.00,1.0650
3293.00,1.0651
3292.00,1.0652
3291.00,1.0651
3290.00,1.0651
3289.00,1.0652
3288.00,1.0653
3287.00,1.0655
3286.00,1.0657
3285.00,1.0659
3284.00,1.0660
3283.00,1.0661
3282.00,1.0662
3281.00,1.0662
3280.00,1.0663
3279.00,1.0662
3278.00,1.0662
3277.00,1.0662
3276.00,1.0663
3275.00,1.0664
3274.00,1.0664
3273.00,1.0664
3272.00,1.0663
3271.00,1.0662
3270.00,1.0663
3269.00,1.0664
3268.00,1.0667
3267.00,1.0669
3266.00,1.0671
3265.00,1.0672
3264.00,1.0674
3263.00,1.0674
3262.00,1.0675
3261.00,1.0675
3260.00,1.0674
3259.00,1.0674
3258.00,1.0675
3257.00,1.0674
3256.00,1.0673
3255.00,1.0672
3254.00,1.0672
3253.00,1.0674
3252.00,1.0676
3251.00,1.0679
3250.00,1.0681
3249.00,1.0682
3248.00,1.0682
3247.00,1.0682
3246.00,1.0681
3245.00,1.0681
3244.00,1.0682
3243.00,1.0683
3242.00,1.0685
3241.00,1.0686
3240.00,1.0687
3239.00,1.0688
3238.00,1.0689
3237.00,1.0690
3236.00,1.0690
3235.00,1.0690
3234.00,1.0690
3233.00,1.0691
3232.00,1.0693
3231.00,1.0695
3230.00,1.0698
3229.00,1.0699
3228.00,1.0700
3227.00,1.0700
3226.00,1.0699
3225.00,1.0700
3224.00,1.0701
3223.00,1.0703
3222.00,1.0704
3221.00,1.0704
3220.00,1.0704
3219.00,1.0703
3218.00,1.0703
3217.00,1.0703
3216.00,1.0703
3215.00,1.0703
3214.00,1.0702
3213.00,1.0702
3212.00,1.0703
3211.00,1.0705
3210.00,1.0707
3209.00,1.0708
3208.00,1.0708
3207.00,1.0708
3206.00,1.0707
3205.00,1.0707
3204.00,1.0707
3203.00,1.0706
3202.00,1.0705
3201.00,1.0705
3200.00,1.0706
3199.00,1.0707
3198.00,1.0708
3197.00,1.0708
3196.00,1.0708
3195.00,1.0707
3194.00,1.0706
3193.00,1.0705
3192.00,1.0705
3191.00,1.0705
3190.00,1.0707
3189.00,1.0708
3188.00,1.0709
3187.00,1.0709
3186.00,1.0708
3185.00,1.0707
3184.00,1.0707
3183.00,1.0708
3182.00,1.0710
3181.00,1.0712
3180.00,1.0713
3179.00,1.0713
3178.00,1.0712
3177.00,1.0711
3176.00,1.0709
3175.00,1.0708
3174.00,1.0707
3173.00,1.0707
3172.00,1.0708
3171.00,1.0709
3170.00,1.0710
3169.00,1.0711
3168.00,1.0713
3167.00,1.0713
3166.00,1.0713
3165.00,1.0712
3164.00,1.0712
3163.00,1.0712
3162.00,1.0712
3161.00,1.0712
3160.00,1.0712
3159.00,1.0712
3158.00,1.0712
3157.00,1.0711
3156.00,1.0712
3155.00,1.0712
3154.00,1.0713
3153.00,1.0713
3152.00,1.0713
3151.00,1.0713
3150.00,1.0714
3149.00,1.0716
3148.00,1.0718
3147.00,1.0719
3146.00,1.0719
3145.00,1.0718
3144.00,1.0718
3143.00,1.0719
3142.00,1.0720
3141.00,1.0720
3140.00,1.0720
3139.00,1.0719
3138.00,1.0718
3137.00,1.0717
3136.00,1.0717
3135.00,1.0716
3134.00,1.0717
3133.00,1.0718
3132.00,1.0719
3131.00,1.0721
3130.00,1.0723
3129.00,1.0727
3128.00,1.0733
3127.00,1.0737
3126.00,1.0737
3125.00,1.0735
3124.00,1.0730
3123.00,1.0725
3122.00,1.0722
3121.00,1.0720
3120.00,1.0718
3119.00,1.0717
3118.00,1.0717
3117.00,1.0717
3116.00,1.0717
3115.00,1.0717
3114.00,1.0718
3113.00,1.0720
3112.00,1.0723
3111.00,1.0726
3110.00,1.0727
3109.00,1.0727
3108.00,1.0726
3107.00,1.0725
3106.00,1.0725
3105.00,1.0726
3104.00,1.0727
3103.00,1.0728
3102.00,1.0727
3101.00,1.0727
3100.00,1.0728
3099.00,1.0729
3098.00,1.0730
3097.00,1.0731
3096.00,1.0731
3095.00,1.0729
3094.00,1.0728
3093.00,1.0727
3092.00,1.0726
3091.00,1.0726
3090.00,1.0726
3089.00,1.0726
3088.00,1.0727
3087.00,1.0727
3086.00,1.0727
3085.00,1.0726
3084.00,1.0726
3083.00,1.0725
3082.00,1.0724
3081.00,1.0723
3080.00,1.0723
3079.00,1.0722
3078.00,1.0722
3077.00,1.0723
3076.00,1.0724
3075.00,1.0725
3074.00,1.0726
3073.00,1.0725
3072.00,1.0725
3071.00,1.0723
3070.00,1.0722
3069.00,1.0720
3068.00,1.0719
3067.00,1.0718
3066.00,1.0719
3065.00,1.0720
3064.00,1.0722
3063.00,1.0724
3062.00,1.0724
3061.00,1.0723
3060.00,1.0721
3059.00,1.0720
3058.00,1.0719
3057.00,1.0719
3056.00,1.0719
3055.00,1.0719
3054.00,1.0720
3053.00,1.0720
3052.00,1.0719
3051.00,1.0719
3050.00,1.0718
3049.00,1.0718
3048.00,1.0719
3047.00,1.0719
3046.00,1.0718
3045.00,1.0717
3044.00,1.0716
3043.00,1.0716
3042.00,1.0716
3041.00,1.0715
3040.00,1.0714
3039.00,1.0714
3038.00,1.0715
3037.00,1.0716
3036.00,1.0716
3035.00,1.0716
3034.00,1.0715
3033.00,1.0714
3032.00,1.0714
3031.00,1.0715
3030.00,1.0716
3029.00,1.0717
3028.00,1.0716
3027.00,1.0715
3026.00,1.0713
3025.00,1.0710
3024.00,1.0709
3023.00,1.0708
3022.00,1.0708
3021.00,1.0709
3020.00,1.0709
3019.00,1.0709
3018.00,1.0710
3017.00,1.0711
3016.00,1.0711
3015.00,1.0711
3014.00,1.0710
3013.00,1.0709
3012.00,1.0708
3011.00,1.0707
3010.00,1.0705
3009.00,1.0704
3008.00,1.0704
3007.00,1.0704
3006.00,1.0705
3005.00,1.0704
3004.00,1.0703
3003.00,1.0699
3002.00,1.0696
3001.00,1.0695
3000.00,1.0696
2999.00,1.0699
2998.00,1.0701
2997.00,1.0702
2996.00,1.0701
2995.00,1.0700
2994.00,1.0698
2993.00,1.0697
2992.00,1.0696
2991.00,1.0695
2990.00,1.0695
2989.00,1.0695
2988.00,1.0695
2987.00,1.0696
2986.00,1.0696
2985.00,1.0697
2984.00,1.0697
2983.00,1.0696
2982.00,1.0694
2981.00,1.0693
2980.00,1.0692
2979.00,1.0692
2978.00,1.0692
2977.00,1.0692
2976.00,1.0691
2975.00,1.0691
2974.00,1.0691
2973.00,1.0691
2972.00,1.0691
2971.00,1.0690
2970.00,1.0689
2969.00,1.0688
2968.00,1.0687
2967.00,1.0686
2966.00,1.0687
2965.00,1.0687
2964.00,1.0688
2963.00,1.0688
2962.00,1.0689
2961.00,1.0689
2960.00,1.0689
2959.00,1.0688
2958.00,1.0687
2957.00,1.0687
2956.00,1.0687
2955.00,1.0686
2954.00,1.0685
2953.00,1.0684
2952.00,1.0683
2951.00,1.0682
2950.00,1.0681
2949.00,1.0680
2948.00,1.0677
2947.00,1.0675
2946.00,1.0672
2945.00,1.0670
2944.00,1.0667
2943.00,1.0666
2942.00,1.0667
2941.00,1.0669
2940.00,1.0671
2939.00,1.0672
2938.00,1.0672
2937.00,1.0671
2936.00,1.0671
2935.00,1.0670
2934.00,1.0669
2933.00,1.0668
2932.00,1.0667
2931.00,1.0668
2930.00,1.0669
2929.00,1.0669
2928.00,1.0670
2927.00,1.0670
2926.00,1.0670
2925.00,1.0671
2924.00,1.0672
2923.00,1.0673
2922.00,1.0675
2921.00,1.0677
2920.00,1.0678
2919.00,1.0678
2918.00,1.0677
2917.00,1.0676
2916.00,1.0675
2915.00,1.0673
2914.00,1.0673
2913.00,1.0673
2912.00,1.0672
2911.00,1.0671
2910.00,1.0669
2909.00,1.0668
2908.00,1.0668
2907.00,1.0668
2906.00,1.0667
2905.00,1.0666
2904.00,1.0664
2903.00,1.0663
2902.00,1.0662
2901.00,1.0662
2900.00,1.0661
2899.00,1.0660
2898.00,1.0658
2897.00,1.0658
2896.00,1.0657
2895.00,1.0656
2894.00,1.0656
2893.00,1.0656
2892.00,1.0656
2891.00,1.0656
2890.00,1.0654
2889.00,1.0654
2888.00,1.0654
2887.00,1.0653
2886.00,1.0652
2885.00,1.0649
2884.00,1.0646
2883.00,1.0645
2882.00,1.0645
2881.00,1.0644
2880.00,1.0643
2879.00,1.0643
2878.00,1.0644
2877.00,1.0647
2876.00,1.0648
2875.00,1.0645
2874.00,1.0640
2873.00,1.0637
2872.00,1.0636
2871.00,1.0636
2870.00,1.0637
2869.00,1.0636
2868.00,1.0635
2867.00,1.0633
2866.00,1.0632
2865.00,1.0632
2864.00,1.0632
2863.00,1.0633
2862.00,1.0634
2861.00,1.0635
2860.00,1.0636
2859.00,1.0636
2858.00,1.0637
2857.00,1.0637
2856.00,1.0637
2855.00,1.0636
2854.00,1.0636
2853.00,1.0636
2852.00,1.0636
2851.00,1.0637
2850.00,1.0637
2849.00,1.0637
2848.00,1.0637
2847.00,1.0636
2846.00,1.0636
2845.00,1.0636
2844.00,1.0635
2843.00,1.0635
2842.00,1.0634
2841.00,1.0633
2840.00,1.0632
2839.00,1.0630
2838.00,1.0629
2837.00,1.0629
2836.00,1.0629
2835.00,1.0630
2834.00,1.0630
2833.00,1.0630
2832.00,1.0630
2831.00,1.0629
2830.00,1.0627
2829.00,1.0626
2828.00,1.0625
2827.00,1.0623
2826.00,1.0622
2825.00,1.0621
2824.00,1.0621
2823.00,1.0622
2822.00,1.0623
2821.00,1.0623
2820.00,1.0622
2819.00,1.0620
2818.00,1.0618
2817.00,1.0617
2816.00,1.0616
2815.00,1.0614
2814.00,1.0612
2813.00,1.0609
2812.00,1.0608
2811.00,1.0609
2810.00,1.0611
2809.00,1.0614
2808.00,1.0616
2807.00,1.0618
2806.00,1.0618
2805.00,1.0618
2804.00,1.0618
2803.00,1.0618
2802.00,1.0617
2801.00,1.0616
2800.00,1.0615
2799.00,1.0613
2798.00,1.0613
2797.00,1.0612
2796.00,1.0611
2795.00,1.0611
2794.00,1.0610
2793.00,1.0610
2792.00,1.0611
2791.00,1.0611
2790.00,1.0612
2789.00,1.0612
2788.00,1.0612
2787.00,1.0612
2786.00,1.0611
2785.00,1.0610
2784.00,1.0609
2783.00,1.0610
2782.00,1.0611
2781.00,1.0612
2780.00,1.0613
2779.00,1.0612
2778.00,1.0611
2777.00,1.0610
2776.00,1.0609
2775.00,1.0608
2774.00,1.0607
2773.00,1.0606
2772.00,1.0605
2771.00,1.0605
2770.00,1.0607
2769.00,1.0609
2768.00,1.0610
2767.00,1.0609
2766.00,1.0607
2765.00,1.0605
2764.00,1.0606
2763.00,1.0608
2762.00,1.0610
2761.00,1.0611
2760.00,1.0611
2759.00,1.0609
2758.00,1.0606
2757.00,1.0605
2756.00,1.0607
2755.00,1.0613
2754.00,1.0621
2753.00,1.0630
2752.00,1.0634
2751.00,1.0631
2750.00,1.0622
2749.00,1.0614
2748.00,1.0609
2747.00,1.0608
2746.00,1.0609
2745.00,1.0610
2744.00,1.0610
2743.00,1.0609
2742.00,1.0608
2741.00,1.0608
2740.00,1.0607
2739.00,1.0607
2738.00,1.0607
2737.00,1.0607
2736.00,1.0607
2735.00,1.0607
2734.00,1.0606
2733.00,1.0605
2732.00,1.0604
2731.00,1.0603
2730.00,1.0603
2729.00,1.0605
2728.00,1.0606
2727.00,1.0606
2726.00,1.0606
2725.00,1.0605
2724.00,1.0605
2723.00,1.0605
2722.00,1.0606
2721.00,1.0606
2720.00,1.0606
2719.00,1.0607
2718.00,1.0608
2717.00,1.0610
2716.00,1.0611
2715.00,1.0610
2714.00,1.0609
2713.00,1.0608
2712.00,1.0608
2711.00,1.0608
2710.00,1.0608
2709.00,1.0608
2708.00,1.0607
2707.00,1.0608
2706.00,1.0608
2705.00,1.0609
2704.00,1.0610
2703.00,1.0611
2702.00,1.0612
2701.00,1.0614
2700.00,1.0616
2699.00,1.0616
2698.00,1.0616
2697.00,1.0615
2696.00,1.0614
2695.00,1.0613
2694.00,1.0615
2693.00,1.0616
2692.00,1.0617
2691.00,1.0615
2690.00,1.0612
2689.00,1.0609
2688.00,1.0608
2687.00,1.0608
2686.00,1.0608
2685.00,1.0609
2684.00,1.0610
2683.00,1.0612
2682.00,1.0612
2681.00,1.0611
2680.00,1.0611
2679.00,1.0612
2678.00,1.0613
2677.00,1.0614
2676.00,1.0614
2675.00,1.0613
2674.00,1.0613
2673.00,1.0613
2672.00,1.0613
2671.00,1.0614
2670.00,1.0614
2669.00,1.0615
2668.00,1.0616
2667.00,1.0617
2666.00,1.0618
2665.00,1.0618
2664.00,1.0619
2663.00,1.0619
2662.00,1.0620
2661.00,1.0620
2660.00,1.0620
2659.00,1.0619
2658.00,1.0619
2657.00,1.0620
2656.00,1.0621
2655.00,1.0621
2654.00,1.0621
2653.00,1.0621
2652.00,1.0620
2651.00,1.0621
2650.00,1.0621
2649.00,1.0621
2648.00,1.0621
2647.00,1.0621
2646.00,1.0621
2645.00,1.0623
2644.00,1.0624
2643.00,1.0625
2642.00,1.0625
2641.00,1.0624
2640.00,1.0624
2639.00,1.0624
2638.00,1.0625
2637.00,1.0627
2636.00,1.0629
2635.00,1.0630
2634.00,1.0629
2633.00,1.0628
2632.00,1.0626
2631.00,1.0625
2630.00,1.0626
2629.00,1.0630
2628.00,1.0634
2627.00,1.0636
2626.00,1.0636
2625.00,1.0633
2624.00,1.0631
2623.00,1.0631
2622.00,1.0631
2621.00,1.0632
2620.00,1.0632
2619.00,1.0632
2618.00,1.0631
2617.00,1.0631
2616.00,1.0630
2615.00,1.0630
2614.00,1.0630
2613.00,1.0631
2612.00,1.0632
2611.00,1.0633
2610.00,1.0634
2609.00,1.0634
2608.00,1.0634
2607.00,1.0634
2606.00,1.0634
2605.00,1.0635
2604.00,1.0635
2603.00,1.0636
2602.00,1.0637
2601.00,1.0637
2600.00,1.0638
2599.00,1.0637
2598.00,1.0636
2597.00,1.0636
2596.00,1.0635
2595.00,1.0635
2594.00,1.0634
2593.00,1.0634
2592.00,1.0635
2591.00,1.0636
2590.00,1.0638
2589.00,1.0639
2588.00,1.0640
2587.00,1.0640
2586.00,1.0640
2585.00,1.0639
2584.00,1.0639
2583.00,1.0639
2582.00,1.0639
2581.00,1.0640
2580.00,1.0642
2579.00,1.0643
2578.00,1.0644
2577.00,1.0645
2576.00,1.0645
2575.00,1.0646
2574.00,1.0646
2573.00,1.0645
2572.00,1.0645
2571.00,1.0645
2570.00,1.0644
2569.00,1.0645
2568.00,1.0645
2567.00,1.0645
2566.00,1.0645
2565.00,1.0645
2564.00,1.0646
2563.00,1.0646
2562.00,1.0646
2561.00,1.0645
2560.00,1.0645
2559.00,1.0645
2558.00,1.0646
2557.00,1.0646
2556.00,1.0645
2555.00,1.0645
2554.00,1.0646
2553.00,1.0647
2552.00,1.0648
2551.00,1.0648
2550.00,1.0647
2549.00,1.0647
2548.00,1.0647
2547.00,1.0648
2546.00,1.0649
2545.00,1.0651
2544.00,1.0652
2543.00,1.0653
2542.00,1.0654
2541.00,1.0654
2540.00,1.0654
2539.00,1.0654
2538.00,1.0653
2537.00,1.0653
2536.00,1.0653
2535.00,1.0653
2534.00,1.0653
2533.00,1.0653
2532.00,1.0652
2531.00,1.0651
2530.00,1.0651
2529.00,1.0652
2528.00,1.0653
2527.00,1.0654
2526.00,1.0654
2525.00,1.0655
2524.00,1.0655
2523.00,1.0655
2522.00,1.0655
2521.00,1.0655
2520.00,1.0656
2519.00,1.0656
2518.00,1.0656
2517.00,1.0657
2516.00,1.0657
2515.00,1.0657
2514.00,1.0656
2513.00,1.0655
2512.00,1.0655
2511.00,1.0656
2510.00,1.0658
2509.00,1.0660
2508.00,1.0661
2507.00,1.0661
2506.00,1.0661
2505.00,1.0661
2504.00,1.0662
2503.00,1.0664
2502.00,1.0665
2501.00,1.0664
2500.00,1.0663
2499.00,1.0661
2498.00,1.0660
2497.00,1.0660
2496.00,1.0660
2495.00,1.0661
2494.00,1.0662
2493.00,1.0663
2492.00,1.0663
2491.00,1.0663
2490.00,1.0662
2489.00,1.0663
2488.00,1.0665
2487.00,1.0666
2486.00,1.0667
2485.00,1.0666
2484.00,1.0666
2483.00,1.0665
2482.00,1.0665
2481.00,1.0665
2480.00,1.0665
2479.00,1.0665
2478.00,1.0666
2477.00,1.0667
2476.00,1.0668
2475.00,1.0669
2474.00,1.0669
2473.00,1.0670
2472.00,1.0670
2471.00,1.0671
2470.00,1.0671
2469.00,1.0671
2468.00,1.0671
2467.00,1.0672
2466.00,1.0673
2465.00,1.0673
2464.00,1.0673
2463.00,1.0672
2462.00,1.0671
2461.00,1.0672
2460.00,1.0674
2459.00,1.0676
2458.00,1.0678
2457.00,1.0677
2456.00,1.0677
2455.00,1.0677
2454.00,1.0678
2453.00,1.0679
2452.00,1.0680
2451.00,1.0679
2450.00,1.0677
2449.00,1.0677
2448.00,1.0677
2447.00,1.0679
2446.00,1.0680
2445.00,1.0680
2444.00,1.0680
2443.00,1.0681
2442.00,1.0682
2441.00,1.0683
2440.00,1.0683
2439.00,1.0681
2438.00,1.0678
2437.00,1.0675
2436.00,1.0674
2435.00,1.0675
2434.00,1.0679
2433.00,1.0682
2432.00,1.0684
2431.00,1.0684
2430.00,1.0683
2429.00,1.0683
2428.00,1.0683
2427.00,1.0685
2426.00,1.0687
2425.00,1.0688
2424.00,1.0687
2423.00,1.0686
2422.00,1.0687
2421.00,1.0688
2420.00,1.0691
2419.00,1.0692
2418.00,1.0693
2417.00,1.0694
2416.00,1.0694
2415.00,1.0693
2414.00,1.0692
2413.00,1.0691
2412.00,1.0689
2411.00,1.0687
2410.00,1.0687
2409.00,1.0687
2408.00,1.0687
2407.00,1.0686
2406.00,1.0685
2405.00,1.0684
2404.00,1.0684
2403.00,1.0684
2402.00,1.0683
2401.00,1.0683
2400.00,1.0682
2399.00,1.0681
2398.00,1.0681
2397.00,1.0681
2396.00,1.0682
2395.00,1.0682
2394.00,1.0681
2393.00,1.0681
2392.00,1.0681
2391.00,1.0682
2390.00,1.0682
2389.00,1.0681
2388.00,1.0681
2387.00,1.0680
2386.00,1.0679
2385.00,1.0679
2384.00,1.0678
2383.00,1.0678
2382.00,1.0679
2381.00,1.0680
2380.00,1.0680
2379.00,1.0679
2378.00,1.0677
2377.00,1.0675
2376.00,1.0676
2375.00,1.0678
2374.00,1.0680
2373.00,1.0681
2372.00,1.0680
2371.00,1.0679
2370.00,1.0679
2369.00,1.0678
2368.00,1.0677
2367.00,1.0677
2366.00,1.0677
2365.00,1.0678
2364.00,1.0679
2363.00,1.0680
2362.00,1.0681
2361.00,1.0680
2360.00,1.0679
2359.00,1.0677
2358.00,1.0676
2357.00,1.0676
2356.00,1.0677
2355.00,1.0679
2354.00,1.0680
2353.00,1.0681
2352.00,1.0682
2351.00,1.0682
2350.00,1.0681
2349.00,1.0680
2348.00,1.0681
2347.00,1.0681
2346.00,1.0681
2345.00,1.0681
2344.00,1.0681
2343.00,1.0682
2342.00,1.0682
2341.00,1.0683
2340.00,1.0684
2339.00,1.0684
2338.00,1.0683
2337.00,1.0683
2336.00,1.0683
2335.00,1.0684
2334.00,1.0684
2333.00,1.0685
2332.00,1.0686
2331.00,1.0685
2330.00,1.0685
2329.00,1.0685
2328.00,1.0685
2327.00,1.0686
2326.00,1.0685
2325.00,1.0684
2324.00,1.0684
2323.00,1.0685
2322.00,1.0686
2321.00,1.0687
2320.00,1.0688
2319.00,1.0689
2318.00,1.0690
2317.00,1.0692
2316.00,1.0694
2315.00,1.0695
2314.00,1.0695
2313.00,1.0694
2312.00,1.0694
2311.00,1.0695
2310.00,1.0695
2309.00,1.0695
2308.00,1.0694
2307.00,1.0692
2306.00,1.0691
2305.00,1.0690
2304.00,1.0690
2303.00,1.0690
2302.00,1.0691
2301.00,1.0692
2300.00,1.0693
2299.00,1.0692
2298.00,1.0692
2297.00,1.0692
2296.00,1.0693
2295.00,1.0693
2294.00,1.0693
2293.00,1.0694
2292.00,1.0695
2291.00,1.0695
2290.00,1.0695
2289.00,1.0694
2288.00,1.0694
2287.00,1.0695
2286.00,1.0695
2285.00,1.0695
2284.00,1.0695
2283.00,1.0695
2282.00,1.0695
2281.00,1.0696
2280.00,1.0696
2279.00,1.0696
2278.00,1.0696
2277.00,1.0697
2276.00,1.0697
2275.00,1.0697
2274.00,1.0698
2273.00,1.0698
2272.00,1.0699
2271.00,1.0700
2270.00,1.0699
2269.00,1.0699
2268.00,1.0698
2267.00,1.0698
2266.00,1.0698
2265.00,1.0698
2264.00,1.0698
2263.00,1.0699
2262.00,1.0700
2261.00,1.0701
2260.00,1.0701
2259.00,1.0701
2258.00,1.0701
2257.00,1.0701
2256.00,1.0699
2255.00,1.0696
2254.00,1.0690
2253.00,1.0686
2252.00,1.0685
2251.00,1.0688
2250.00,1.0693
2249.00,1.0698
2248.00,1.0700
2247.00,1.0700
2246.00,1.0700
2245.00,1.0701
2244.00,1.0702
2243.00,1.0703
2242.00,1.0704
2241.00,1.0704
2240.00,1.0705
2239.00,1.0704
2238.00,1.0703
2237.00,1.0702
2236.00,1.0701
2235.00,1.0700
2234.00,1.0700
2233.00,1.0700
2232.00,1.0700
2231.00,1.0700
2230.00,1.0701
2229.00,1.0702
2228.00,1.0702
2227.00,1.0702
2226.00,1.0702
2225.00,1.0702
2224.00,1.0701
2223.00,1.0701
2222.00,1.0700
2221.00,1.0699
2220.00,1.0699
2219.00,1.0699
2218.00,1.0699
2217.00,1.0701
2216.00,1.0702
2215.00,1.0703
2214.00,1.0703
2213.00,1.0703
2212.00,1.0703
2211.00,1.0703
2210.00,1.0702
2209.00,1.0701
2208.00,1.0700
2207.00,1.0699
2206.00,1.0699
2205.00,1.0699
2204.00,1.0700
2203.00,1.0701
2202.00,1.0702
2201.00,1.0703
2200.00,1.0703
2199.00,1.0702
2198.00,1.0701
2197.00,1.0700
2196.00,1.0701
2195.00,1.0702
2194.00,1.0703
2193.00,1.0704
2192.00,1.0704
2191.00,1.0702
2190.00,1.0699
2189.00,1.0698
2188.00,1.0699
2187.00,1.0703
2186.00,1.0706
2185.00,1.0707
2184.00,1.0706
2183.00,1.0704
2182.00,1.0701
2181.00,1.0699
2180.00,1.0698
2179.00,1.0696
2178.00,1.0694
2177.00,1.0694
2176.00,1.0695
2175.00,1.0695
2174.00,1.0694
2173.00,1.0694
2172.00,1.0694
2171.00,1.0695
2170.00,1.0696
2169.00,1.0696
2168.00,1.0696
2167.00,1.0695
2166.00,1.0694
2165.00,1.0694
2164.00,1.0694
2163.00,1.0693
2162.00,1.0692
2161.00,1.0692
2160.00,1.0691
2159.00,1.0689
2158.00,1.0688
2157.00,1.0687
2156.00,1.0687
2155.00,1.0688
2154.00,1.0689
2153.00,1.0690
2152.00,1.0691
2151.00,1.0690
2150.00,1.0689
2149.00,1.0688
2148.00,1.0688
2147.00,1.0688
2146.00,1.0689
2145.00,1.0689
2144.00,1.0688
2143.00,1.0687
2142.00,1.0687
2141.00,1.0686
2140.00,1.0686
2139.00,1.0685
2138.00,1.0684
2137.00,1.0684
2136.00,1.0683
2135.00,1.0682
2134.00,1.0682
2133.00,1.0683
2132.00,1.0683
2131.00,1.0683
2130.00,1.0683
2129.00,1.0684
2128.00,1.0685
2127.00,1.0684
2126.00,1.0683
2125.00,1.0681
2124.00,1.0680
2123.00,1.0679
2122.00,1.0678
2121.00,1.0677
2120.00,1.0677
2119.00,1.0677
2118.00,1.0677
2117.00,1.0677
2116.00,1.0677
2115.00,1.0676
2114.00,1.0675
2113.00,1.0674
2112.00,1.0675
2111.00,1.0674
2110.00,1.0674
2109.00,1.0673
2108.00,1.0674
2107.00,1.0674
2106.00,1.0673
2105.00,1.0673
2104.00,1.0672
2103.00,1.0671
2102.00,1.0670
2101.00,1.0669
2100.00,1.0669
2099.00,1.0669
2098.00,1.0669
2097.00,1.0670
2096.00,1.0669
2095.00,1.0668
2094.00,1.0666
2093.00,1.0665
2092.00,1.0665
2091.00,1.0666
2090.00,1.0666
2089.00,1.0665
2088.00,1.0664
2087.00,1.0662
2086.00,1.0662
2085.00,1.0663
2084.00,1.0663
2083.00,1.0663
2082.00,1.0662
2081.00,1.0662
2080.00,1.0662
2079.00,1.0661
2078.00,1.0661
2077.00,1.0660
2076.00,1.0659
2075.00,1.0658
2074.00,1.0658
2073.00,1.0657
2072.00,1.0655
2071.00,1.0654
2070.00,1.0654
2069.00,1.0655
2068.00,1.0656
2067.00,1.0657
2066.00,1.0656
2065.00,1.0655
2064.00,1.0653
2063.00,1.0652
2062.00,1.0651
2061.00,1.0651
2060.00,1.0652
2059.00,1.0652
2058.00,1.0652
2057.00,1.0651
2056.00,1.0650
2055.00,1.0648
2054.00,1.0647
2053.00,1.0647
2052.00,1.0648
2051.00,1.0648
2050.00,1.0648
2049.00,1.0647
2048.00,1.0645
2047.00,1.0644
2046.00,1.0644
2045.00,1.0644
2044.00,1.0645
2043.00,1.0645
2042.00,1.0644
2041.00,1.0643
2040.00,1.0642
2039.00,1.0641
2038.00,1.0641
2037.00,1.0640
2036.00,1.0640
2035.00,1.0639
2034.00,1.0638
2033.00,1.0638
2032.00,1.0639
2031.00,1.0639
2030.00,1.0639
2029.00,1.0639
2028.00,1.0639
2027.00,1.0638
2026.00,1.0637
2025.00,1.0637
2024.00,1.0636
2023.00,1.0635
2022.00,1.0634
2021.00,1.0634
2020.00,1.0633
2019.00,1.0633
2018.00,1.0633
2017.00,1.0635
2016.00,1.0635
2015.00,1.0634
2014.00,1.0632
2013.00,1.0631
2012.00,1.0630
2011.00,1.0628
2010.00,1.0627
2009.00,1.0627
2008.00,1.0626
2007.00,1.0626
2006.00,1.0625
2005.00,1.0624
2004.00,1.0621
2003.00,1.0616
2002.00,1.0611
2001.00,1.0611
2000.00,1.0616
1999.00,1.0622
1998.00,1.0626
1997.00,1.0628
1996.00,1.0628
1995.00,1.0628
1994.00,1.0627
1993.00,1.0625
1992.00,1.0624
1991.00,1.0623
1990.00,1.0622
1989.00,1.0622
1988.00,1.0623
1987.00,1.0624
1986.00,1.0624
1985.00,1.0625
1984.00,1.0625
1983.00,1.0625
1982.00,1.0624
1981.00,1.0623
1980.00,1.0622
1979.00,1.0621
1978.00,1.0620
1977.00,1.0619
1976.00,1.0617
1975.00,1.0616
1974.00,1.0616
1973.00,1.0618
1972.00,1.0620
1971.00,1.0621
1970.00,1.0621
1969.00,1.0621
1968.00,1.0621
1967.00,1.0620
1966.00,1.0619
1965.00,1.0618
1964.00,1.0616
1963.00,1.0615
1962.00,1.0615
1961.00,1.0616
1960.00,1.0617
1959.00,1.0618
1958.00,1.0618
1957.00,1.0619
1956.00,1.0620
1955.00,1.0621
1954.00,1.0620
1953.00,1.0620
1952.00,1.0620
1951.00,1.0619
1950.00,1.0619
1949.00,1.0620
1948.00,1.0622
1947.00,1.0622
1946.00,1.0622
1945.00,1.0621
1944.00,1.0621
1943.00,1.0620
1942.00,1.0619
1941.00,1.0618
1940.00,1.0617
1939.00,1.0617
1938.00,1.0618
1937.00,1.0619
1936.00,1.0620
1935.00,1.0621
1934.00,1.0621
1933.00,1.0621
1932.00,1.0621
1931.00,1.0621
1930.00,1.0620
1929.00,1.0621
1928.00,1.0622
1927.00,1.0622
1926.00,1.0622
1925.00,1.0622
1924.00,1.0621
1923.00,1.0620
1922.00,1.0620
1921.00,1.0622
1920.00,1.0624
1919.00,1.0625
1918.00,1.0623
1917.00,1.0620
1916.00,1.0618
1915.00,1.0618
1914.00,1.0620
1913.00,1.0623
1912.00,1.0625
1911.00,1.0626
1910.00,1.0626
1909.00,1.0625
1908.00,1.0625
1907.00,1.0625
1906.00,1.0625
1905.00,1.0625
1904.00,1.0626
1903.00,1.0626
1902.00,1.0626
1901.00,1.0626
1900.00,1.0627
1899.00,1.0627
1898.00,1.0627
1897.00,1.0627
1896.00,1.0629
1895.00,1.0629
1894.00,1.0629
1893.00,1.0630
1892.00,1.0632
1891.00,1.0633
1890.00,1.0633
1889.00,1.0633
1888.00,1.0633
1887.00,1.0632
1886.00,1.0631
1885.00,1.0632
1884.00,1.0633
1883.00,1.0632
1882.00,1.0629
1881.00,1.0628
1880.00,1.0628
1879.00,1.0628
1878.00,1.0627
1877.00,1.0628
1876.00,1.0629
1875.00,1.0631
1874.00,1.0632
1873.00,1.0634
1872.00,1.0636
1871.00,1.0638
1870.00,1.0638
1869.00,1.0637
1868.00,1.0636
1867.00,1.0633
1866.00,1.0630
1865.00,1.0630
1864.00,1.0631
1863.00,1.0631
1862.00,1.0631
1861.00,1.0632
1860.00,1.0634
1859.00,1.0636
1858.00,1.0636
1857.00,1.0636
1856.00,1.0636
1855.00,1.0636
1854.00,1.0634
1853.00,1.0634
1852.00,1.0635
1851.00,1.0635
1850.00,1.0635
1849.00,1.0635
1848.00,1.0635
1847.00,1.0636
1846.00,1.0638
1845.00,1.0641
1844.00,1.0642
1843.00,1.0640
1842.00,1.0637
1841.00,1.0637
1840.00,1.0637
1839.00,1.0637
1838.00,1.0637
1837.00,1.0637
1836.00,1.0638
1835.00,1.0638
1834.00,1.0639
1833.00,1.0640
1832.00,1.0642
1831.00,1.0644
1830.00,1.0644
1829.00,1.0643
1828.00,1.0641
1827.00,1.0640
1826.00,1.0640
1825.00,1.0641
1824.00,1.0642
1823.00,1.0643
1822.00,1.0643
1821.00,1.0645
1820.00,1.0646
1819.00,1.0648
1818.00,1.0647
1817.00,1.0646
1816.00,1.0644
1815.00,1.0642
1814.00,1.0640
1813.00,1.0641
1812.00,1.0646
1811.00,1.0649
1810.00,1.0649
1809.00,1.0648
1808.00,1.0648
1807.00,1.0648
1806.00,1.0647
1805.00,1.0648
1804.00,1.0649
1803.00,1.0649
1802.00,1.0648
1801.00,1.0649
1800.00,1.0650
1799.00,1.0650
1798.00,1.0649
1797.00,1.0649
1796.00,1.0650
1795.00,1.0650
1794.00,1.0650
1793.00,1.0649
1792.00,1.0649
1791.00,1.0649
1790.00,1.0647
1789.00,1.0648
1788.00,1.0649
1787.00,1.0650
1786.00,1.0650
1785.00,1.0651
1784.00,1.0652
1783.00,1.0652
1782.00,1.0651
1781.00,1.0651
1780.00,1.0652
1779.00,1.0653
1778.00,1.0653
1777.00,1.0653
1776.00,1.0654
1775.00,1.0654
1774.00,1.0655
1773.00,1.0656
1772.00,1.0656
1771.00,1.0656
1770.00,1.0656
1769.00,1.0657
1768.00,1.0659
1767.00,1.0661
1766.00,1.0662
1765.00,1.0663
1764.00,1.0664
1763.00,1.0667
1762.00,1.0667
1761.00,1.0666
1760.00,1.0664
1759.00,1.0663
1758.00,1.0663
1757.00,1.0662
1756.00,1.0660
1755.00,1.0659
1754.00,1.0660
1753.00,1.0662
1752.00,1.0663
1751.00,1.0665
1750.00,1.0665
1749.00,1.0665
1748.00,1.0665
1747.00,1.0668
1746.00,1.0670
1745.00,1.0671
1744.00,1.0668
1743.00,1.0666
1742.00,1.0665
1741.00,1.0664
1740.00,1.0665
1739.00,1.0666
1738.00,1.0666
1737.00,1.0666
1736.00,1.0665
1735.00,1.0663
1734.00,1.0663
1733.00,1.0664
1732.00,1.0667
1731.00,1.0670
1730.00,1.0673
1729.00,1.0675
1728.00,1.0676
1727.00,1.0676
1726.00,1.0676
1725.00,1.0677
1724.00,1.0679
1723.00,1.0680
1722.00,1.0679
1721.00,1.0678
1720.00,1.0679
1719.00,1.0678
1718.00,1.0675
1717.00,1.0676
1716.00,1.0680
1715.00,1.0680
1714.00,1.0677
1713.00,1.0677
1712.00,1.0680
1711.00,1.0682
1710.00,1.0680
1709.00,1.0680
1708.00,1.0683
1707.00,1.0684
1706.00,1.0682
1705.00,1.0681
1704.00,1.0681
1703.00,1.0680
1702.00,1.0677
1701.00,1.0676
1700.00,1.0677
1699.00,1.0677
1698.00,1.0677
1697.00,1.0680
1696.00,1.0686
1695.00,1.0688
1694.00,1.0687
1693.00,1.0686
1692.00,1.0686
1691.00,1.0688
1690.00,1.0689
1689.00,1.0689
1688.00,1.0688
1687.00,1.0686
1686.00,1.0687
1685.00,1.0688
1684.00,1.0689
1683.00,1.0689
1682.00,1.0691
1681.00,1.0692
1680.00,1.0691
1679.00,1.0690
1678.00,1.0691
1677.00,1.0692
1676.00,1.0691
1675.00,1.0690
1674.00,1.0691
1673.00,1.0692
1672.00,1.0691
1671.00,1.0691
1670.00,1.0694
1669.00,1.0696
1668.00,1.0697
1667.00,1.0697
1666.00,1.0698
1665.00,1.0700
1664.00,1.0700
1663.00,1.0699
1662.00,1.0700
1661.00,1.0701
1660.00,1.0699
1659.00,1.0698
1658.00,1.0699
1657.00,1.0699
1656.00,1.0697
1655.00,1.0698
1654.00,1.0701
1653.00,1.0704
1652.00,1.0704
1651.00,1.0704
1650.00,1.0703
1649.00,1.0701
1648.00,1.0699
1647.00,1.0699
1646.00,1.0700
1645.00,1.0700
1644.00,1.0701
1643.00,1.0702
1642.00,1.0704
1641.00,1.0705
1640.00,1.0706
1639.00,1.0705
1638.00,1.0704
1637.00,1.0702
1636.00,1.0702
1635.00,1.0702
1634.00,1.0702
1633.00,1.0700
1632.00,1.0699
1631.00,1.0699
1630.00,1.0699
1629.00,1.0700
1628.00,1.0701
1627.00,1.0701
1626.00,1.0701
1625.00,1.0702
1624.00,1.0703
1623.00,1.0703
1622.00,1.0705
1621.00,1.0707
1620.00,1.0707
1619.00,1.0706
1618.00,1.0707
1617.00,1.0708
1616.00,1.0708
1615.00,1.0707
1614.00,1.0708
1613.00,1.0709
1612.00,1.0708
1611.00,1.0708
1610.00,1.0710
1609.00,1.0712
1608.00,1.0713
1607.00,1.0713
1606.00,1.0715
1605.00,1.0716
1604.00,1.0715
1603.00,1.0716
1602.00,1.0718
1601.00,1.0718
1600.00,1.0717
1599.00,1.0716
1598.00,1.0718
1597.00,1.0719
1596.00,1.0719
1595.00,1.0718
1594.00,1.0719
1593.00,1.0719
1592.00,1.0718
1591.00,1.0717
1590.00,1.0718
1589.00,1.0718
1588.00,1.0718
1587.00,1.0717
1586.00,1.0719
1585.00,1.0721
1584.00,1.0721
1583.00,1.0720
1582.00,1.0721
1581.00,1.0722
1580.00,1.0719
1579.00,1.0718
1578.00,1.0720
1577.00,1.0721
1576.00,1.0719
1575.00,1.0717
1574.00,1.0717
1573.00,1.0717
1572.00,1.0717
1571.00,1.0718
1570.00,1.0719
1569.00,1.0717
1568.00,1.0710
1567.00,1.0707
1566.00,1.0711
1565.00,1.0717
1564.00,1.0720
1563.00,1.0721
1562.00,1.0723
1561.00,1.0724
1560.00,1.0720
1559.00,1.0718
1558.00,1.0722
1557.00,1.0726
1556.00,1.0725
1555.00,1.0725
1554.00,1.0726
1553.00,1.0727
1552.00,1.0726
1551.00,1.0725
1550.00,1.0726
1549.00,1.0726
1548.00,1.0725
1547.00,1.0723
1546.00,1.0724
1545.00,1.0727
1544.00,1.0728
1543.00,1.0728
1542.00,1.0728
1541.00,1.0728
1540.00,1.0727
1539.00,1.0726
1538.00,1.0726
1537.00,1.0729
1536.00,1.0730
1535.00,1.0729
1534.00,1.0730
1533.00,1.0731
1532.00,1.0732
1531.00,1.0732
1530.00,1.0732
1529.00,1.0733
1528.00,1.0736
1527.00,1.0735
1526.00,1.0733
1525.00,1.0731
1524.00,1.0729
1523.00,1.0727
1522.00,1.0727
1521.00,1.0727
1520.00,1.0728
1519.00,1.0728
1518.00,1.0727
1517.00,1.0727
1516.00,1.0728
1515.00,1.0728
1514.00,1.0727
1513.00,1.0725
1512.00,1.0725
1511.00,1.0726
1510.00,1.0724
1509.00,1.0720
1508.00,1.0718
1507.00,1.0718
1506.00,1.0718
1505.00,1.0719
1504.00,1.0719
1503.00,1.0719
1502.00,1.0718
1501.00,1.0716
1500.00,1.0715
1499.00,1.0715
1498.00,1.0713
1497.00,1.0712
1496.00,1.0716
1495.00,1.0724
1494.00,1.0731
1493.00,1.0736
1492.00,1.0739
1491.00,1.0739
1490.00,1.0738
1489.00,1.0737
1488.00,1.0738
1487.00,1.0737
1486.00,1.0735
1485.00,1.0735
1484.00,1.0735
1483.00,1.0732
1482.00,1.0729
1481.00,1.0728
1480.00,1.0729
1479.00,1.0729
1478.00,1.0728
1477.00,1.0728
1476.00,1.0729
1475.00,1.0726
1474.00,1.0722
1473.00,1.0720
1472.00,1.0721
1471.00,1.0723
1470.00,1.0724
1469.00,1.0725
1468.00,1.0726
1467.00,1.0726
1466.00,1.0726
1465.00,1.0725
1464.00,1.0726
1463.00,1.0726
1462.00,1.0725
1461.00,1.0723
1460.00,1.0722
1459.00,1.0722
1458.00,1.0720
1457.00,1.0715
1456.00,1.0709
1455.00,1.0708
1454.00,1.0711
1453.00,1.0714
1452.00,1.0718
1451.00,1.0724
1450.00,1.0730
1449.00,1.0732
1448.00,1.0732
1447.00,1.0731
1446.00,1.0730
1445.00,1.0725
1444.00,1.0719
1443.00,1.0715
1442.00,1.0713
1441.00,1.0712
1440.00,1.0715
1439.00,1.0719
1438.00,1.0721
1437.00,1.0718
1436.00,1.0717
1435.00,1.0720
1434.00,1.0723
1433.00,1.0721
1432.00,1.0719
1431.00,1.0721
1430.00,1.0723
1429.00,1.0722
1428.00,1.0721
1427.00,1.0721
1426.00,1.0722
1425.00,1.0719
1424.00,1.0717
1423.00,1.0718
1422.00,1.0721
1421.00,1.0721
1420.00,1.0720
1419.00,1.0720
1418.00,1.0719
1417.00,1.0716
1416.00,1.0714
1415.00,1.0715
1414.00,1.0717
1413.00,1.0715
1412.00,1.0712
1411.00,1.0713
1410.00,1.0714
1409.00,1.0714
1408.00,1.0713
1407.00,1.0715
1406.00,1.0718
1405.00,1.0720
1404.00,1.0720
1403.00,1.0721
1402.00,1.0722
1401.00,1.0720
1400.00,1.0718
1399.00,1.0716
1398.00,1.0717
1397.00,1.0716
1396.00,1.0715
1395.00,1.0715
1394.00,1.0716
1393.00,1.0715
1392.00,1.0713
1391.00,1.0713
1390.00,1.0714
1389.00,1.0714
1388.00,1.0712
1387.00,1.0710
1386.00,1.0710
1385.00,1.0709
1384.00,1.0710
1383.00,1.0711
1382.00,1.0712
1381.00,1.0712
1380.00,1.0711
1379.00,1.0708
1378.00,1.0705
1377.00,1.0702
1376.00,1.0700
1375.00,1.0702
1374.00,1.0706
1373.00,1.0709
1372.00,1.0708
1371.00,1.0706
1370.00,1.0706
1369.00,1.0706
1368.00,1.0705
1367.00,1.0704
1366.00,1.0704
1365.00,1.0705
1364.00,1.0704
1363.00,1.0703
1362.00,1.0703
1361.00,1.0703
1360.00,1.0702
1359.00,1.0701
1358.00,1.0701
1357.00,1.0699
1356.00,1.0698
1355.00,1.0697
1354.00,1.0698
1353.00,1.0699
1352.00,1.0700
1351.00,1.0701
1350.00,1.0701
1349.00,1.0701
1348.00,1.0701
1347.00,1.0701
1346.00,1.0702
1345.00,1.0701
1344.00,1.0700
1343.00,1.0699
1342.00,1.0699
1341.00,1.0698
1340.00,1.0698
1339.00,1.0698
1338.00,1.0700
1337.00,1.0701
1336.00,1.0700
1335.00,1.0699
1334.00,1.0697
1333.00,1.0696
1332.00,1.0696
1331.00,1.0696
1330.00,1.0697
1329.00,1.0697
1328.00,1.0696
1327.00,1.0695
1326.00,1.0695
1325.00,1.0696
1324.00,1.0696
1323.00,1.0697
1322.00,1.0697
1321.00,1.0697
1320.00,1.0695
1319.00,1.0693
1318.00,1.0689
1317.00,1.0686
1316.00,1.0685
1315.00,1.0687
1314.00,1.0691
1313.00,1.0692
1312.00,1.0691
1311.00,1.0691
1310.00,1.0691
1309.00,1.0691
1308.00,1.0691
1307.00,1.0690
1306.00,1.0690
1305.00,1.0690
1304.00,1.0690
1303.00,1.0689
1302.00,1.0689
1301.00,1.0688
1300.00,1.0687
1299.00,1.0686
1298.00,1.0688
1297.00,1.0688
1296.00,1.0688
1295.00,1.0688
1294.00,1.0688
1293.00,1.0688
1292.00,1.0688
1291.00,1.0688
1290.00,1.0689
1289.00,1.0688
1288.00,1.0687
1287.00,1.0687
1286.00,1.0688
1285.00,1.0688
1284.00,1.0687
1283.00,1.0686
1282.00,1.0686
1281.00,1.0685
1280.00,1.0683
1279.00,1.0682
1278.00,1.0682
1277.00,1.0682
1276.00,1.0683
1275.00,1.0683
1274.00,1.0683
1273.00,1.0683
1272.00,1.0682
1271.00,1.0681
1270.00,1.0680
1269.00,1.0679
1268.00,1.0677
1267.00,1.0677
1266.00,1.0677
1265.00,1.0679
1264.00,1.0681
1263.00,1.0684
1262.00,1.0688
1261.00,1.0691
1260.00,1.0693
1259.00,1.0694
1258.00,1.0697
1257.00,1.0697
1256.00,1.0694
1255.00,1.0690
1254.00,1.0689
1253.00,1.0691
1252.00,1.0694
1251.00,1.0697
1250.00,1.0697
1249.00,1.0693
1248.00,1.0688
1247.00,1.0686
1246.00,1.0685
1245.00,1.0685
1244.00,1.0684
1243.00,1.0685
1242.00,1.0687
1241.00,1.0688
1240.00,1.0689
1239.00,1.0689
1238.00,1.0689
1237.00,1.0688
1236.00,1.0687
1235.00,1.0687
1234.00,1.0687
1233.00,1.0687
1232.00,1.0687
1231.00,1.0687
1230.00,1.0688
1229.00,1.0688
1228.00,1.0687
1227.00,1.0686
1226.00,1.0685
1225.00,1.0684
1224.00,1.0683
1223.00,1.0681
1222.00,1.0681
1221.00,1.0681
1220.00,1.0680
1219.00,1.0679
1218.00,1.0678
1217.00,1.0677
1216.00,1.0677
1215.00,1.0677
1214.00,1.0679
1213.00,1.0681
1212.00,1.0682
1211.00,1.0682
1210.00,1.0683
1209.00,1.0682
1208.00,1.0682
1207.00,1.0683
1206.00,1.0686
1205.00,1.0688
1204.00,1.0687
1203.00,1.0685
1202.00,1.0685
1201.00,1.0684
1200.00,1.0683
1199.00,1.0682
1198.00,1.0682
1197.00,1.0682
1196.00,1.0681
1195.00,1.0680
1194.00,1.0680
1193.00,1.0679
1192.00,1.0678
1191.00,1.0676
1190.00,1.0676
1189.00,1.0676
1188.00,1.0678
1187.00,1.0680
1186.00,1.0681
1185.00,1.0680
1184.00,1.0679
1183.00,1.0679
1182.00,1.0680
1181.00,1.0682
1180.00,1.0682
1179.00,1.0683
1178.00,1.0685
1177.00,1.0687
1176.00,1.0688
1175.00,1.0689
1174.00,1.0691
1173.00,1.0693
1172.00,1.0694
1171.00,1.0694
1170.00,1.0693
1169.00,1.0691
1168.00,1.0689
1167.00,1.0689
1166.00,1.0691
1165.00,1.0692
1164.00,1.0691
1163.00,1.0690
1162.00,1.0690
1161.00,1.0691
1160.00,1.0692
1159.00,1.0692
1158.00,1.0692
1157.00,1.0690
1156.00,1.0687
1155.00,1.0686
1154.00,1.0687
1153.00,1.0689
1152.00,1.0690
1151.00,1.0693
1150.00,1.0696
1149.00,1.0698
1148.00,1.0698
1147.00,1.0696
1146.00,1.0695
1145.00,1.0693
1144.00,1.0689
1143.00,1.0686
1142.00,1.0683
1141.00,1.0681
1140.00,1.0680
1139.00,1.0681
1138.00,1.0684
1137.00,1.0685
1136.00,1.0683
1135.00,1.0681
1134.00,1.0682
1133.00,1.0683
1132.00,1.0682
1131.00,1.0680
1130.00,1.0677
1129.00,1.0671
1128.00,1.0660
1127.00,1.0645
1126.00,1.0634
1125.00,1.0635
1124.00,1.0647
1123.00,1.0660
1122.00,1.0668
1121.00,1.0669
1120.00,1.0666
1119.00,1.0665
1118.00,1.0666
1117.00,1.0667
1116.00,1.0666
1115.00,1.0665
1114.00,1.0664
1113.00,1.0663
1112.00,1.0662
1111.00,1.0661
1110.00,1.0660
1109.00,1.0658
1108.00,1.0656
1107.00,1.0655
1106.00,1.0654
1105.00,1.0653
1104.00,1.0650
1103.00,1.0647
1102.00,1.0643
1101.00,1.0640
1100.00,1.0637
1099.00,1.0635
1098.00,1.0633
1097.00,1.0631
1096.00,1.0629
1095.00,1.0627
1094.00,1.0625
1093.00,1.0622
1092.00,1.0618
1091.00,1.0615
1090.00,1.0613
1089.00,1.0611
1088.00,1.0607
1087.00,1.0602
1086.00,1.0598
1085.00,1.0593
1084.00,1.0586
1083.00,1.0580
1082.00,1.0575
1081.00,1.0569
1080.00,1.0563
1079.00,1.0559
1078.00,1.0556
1077.00,1.0554
1076.00,1.0551
1075.00,1.0546
1074.00,1.0540
1073.00,1.0532
1072.00,1.0525
1071.00,1.0518
1070.00,1.0512
1069.00,1.0505
1068.00,1.0499
1067.00,1.0497
1066.00,1.0497
1065.00,1.0497
1064.00,1.0493
1063.00,1.0489
1062.00,1.0484
1061.00,1.0480
1060.00,1.0477
1059.00,1.0474
1058.00,1.0471
1057.00,1.0464
1056.00,1.0456
1055.00,1.0451
1054.00,1.0449
1053.00,1.0446
1052.00,1.0440
1051.00,1.0434
1050.00,1.0429
1049.00,1.0425
1048.00,1.0421
1047.00,1.0418
1046.00,1.0415
1045.00,1.0409
1044.00,1.0402
1043.00,1.0397
1042.00,1.0392
1041.00,1.0385
1040.00,1.0375
1039.00,1.0367
1038.00,1.0361
1037.00,1.0358
1036.00,1.0354
1035.00,1.0350
1034.00,1.0347
1033.00,1.0343
1032.00,1.0339
1031.00,1.0337
1030.00,1.0337
1029.00,1.0334
1028.00,1.0327
1027.00,1.0318
1026.00,1.0313
1025.00,1.0309
1024.00,1.0306
1023.00,1.0303
1022.00,1.0299
1021.00,1.0292
1020.00,1.0284
1019.00,1.0279
1018.00,1.0278
1017.00,1.0277
1016.00,1.0273
1015.00,1.0268
1014.00,1.0265
1013.00,1.0262
1012.00,1.0259
1011.00,1.0256
1010.00,1.0254
1009.00,1.0252
1008.00,1.0248
1007.00,1.0248
1006.00,1.0249
1005.00,1.0245
1004.00,1.0228
1003.00,1.0200
1002.00,1.0173
1001.00,1.0161
1000.00,1.0172
