PE IR       SUBTECH     SPECTRUM    ASCII       PEDS        4.00        
   -1
TE109A_050_80K_after_115K_BG.ASC
20/04/21
16:25:52.00
20/04/21
16:25:52.00
Administrator
TE109A, Tuesday, April 21 2020, 050.
1000.000000
#HDR
-1
-1
#GR
cm-1
EGY
1.0
0.0
6000.000000
-2.000000
2501
8
105.217598
10.929498
#DATA
6000.000000	16.244568
5998.000000	16.278024
5996.000000	16.309793
5994.000000	16.339719
5992.000000	16.370578
5990.000000	16.403196
5988.000000	16.437125
5986.000000	16.470823
5984.000000	16.502562
5982.000000	16.534673
5980.000000	16.566893
5978.000000	16.600062
5976.000000	16.633064
5974.000000	16.666492
5972.000000	16.701117
5970.000000	16.736253
5968.000000	16.770453
5966.000000	16.803389
5964.000000	16.836868
5962.000000	16.871469
5960.000000	16.904891
5958.000000	16.937067
5956.000000	16.969673
5954.000000	17.003765
5952.000000	17.037591
5950.000000	17.071411
5948.000000	17.104858
5946.000000	17.140244
5944.000000	17.175728
5942.000000	17.210059
5940.000000	17.242008
5938.000000	17.273725
5936.000000	17.307078
5934.000000	17.341640
5932.000000	17.376045
5930.000000	17.408981
5928.000000	17.441628
5926.000000	17.475666
5924.000000	17.510911
5922.000000	17.546655
5920.000000	17.582166
5918.000000	17.616867
5916.000000	17.652499
5914.000000	17.689216
5912.000000	17.725595
5910.000000	17.762321
5908.000000	17.799214
5906.000000	17.836297
5904.000000	17.872386
5902.000000	17.907801
5900.000000	17.942913
5898.000000	17.979548
5896.000000	18.016723
5894.000000	18.052255
5892.000000	18.087087
5890.000000	18.123152
5888.000000	18.159163
5886.000000	18.195166
5884.000000	18.229453
5882.000000	18.264125
5880.000000	18.300360
5878.000000	18.336879
5876.000000	18.373400
5874.000000	18.409493
5872.000000	18.445341
5870.000000	18.482119
5868.000000	18.518533
5866.000000	18.554629
5864.000000	18.589818
5862.000000	18.626375
5860.000000	18.664984
5858.000000	18.704828
5856.000000	18.743712
5854.000000	18.781793
5852.000000	18.819122
5850.000000	18.856501
5848.000000	18.893881
5846.000000	18.932773
5844.000000	18.973958
5842.000000	19.015899
5840.000000	19.056831
5838.000000	19.098203
5836.000000	19.139787
5834.000000	19.181259
5832.000000	19.221932
5830.000000	19.261804
5828.000000	19.302840
5826.000000	19.343833
5824.000000	19.384948
5822.000000	19.426352
5820.000000	19.466826
5818.000000	19.506624
5816.000000	19.546178
5814.000000	19.585324
5812.000000	19.624333
5810.000000	19.664773
5808.000000	19.706045
5806.000000	19.747654
5804.000000	19.788031
5802.000000	19.828236
5800.000000	19.869844
5798.000000	19.911702
5796.000000	19.952031
5794.000000	19.991177
5792.000000	20.030756
5790.000000	20.071361
5788.000000	20.112829
5786.000000	20.154902
5784.000000	20.196646
5782.000000	20.237492
5780.000000	20.277189
5778.000000	20.317874
5776.000000	20.359964
5774.000000	20.402915
5772.000000	20.444617
5770.000000	20.485792
5768.000000	20.527495
5766.000000	20.569915
5764.000000	20.611944
5762.000000	20.654674
5760.000000	20.697242
5758.000000	20.739062
5756.000000	20.779527
5754.000000	20.819660
5752.000000	20.860318
5750.000000	20.900774
5748.000000	20.942185
5746.000000	20.983557
5744.000000	21.023832
5742.000000	21.064007
5740.000000	21.104521
5738.000000	21.145965
5736.000000	21.186093
5734.000000	21.226910
5732.000000	21.267091
5730.000000	21.306896
5728.000000	21.347057
5726.000000	21.387934
5724.000000	21.428190
5722.000000	21.468684
5720.000000	21.510475
5718.000000	21.554094
5716.000000	21.597901
5714.000000	21.640836
5712.000000	21.683545
5710.000000	21.726186
5708.000000	21.769929
5706.000000	21.815982
5704.000000	21.860759
5702.000000	21.904683
5700.000000	21.948054
5698.000000	21.991873
5696.000000	22.035695
5694.000000	22.079875
5692.000000	22.124628
5690.000000	22.170143
5688.000000	22.215471
5686.000000	22.261761
5684.000000	22.308004
5682.000000	22.352533
5680.000000	22.396487
5678.000000	22.441176
5676.000000	22.486252
5674.000000	22.530819
5672.000000	22.575768
5670.000000	22.621617
5668.000000	22.667474
5666.000000	22.712377
5664.000000	22.757475
5662.000000	22.804000
5660.000000	22.850465
5658.000000	22.896841
5656.000000	22.941105
5654.000000	22.984388
5652.000000	23.028201
5650.000000	23.073175
5648.000000	23.119096
5646.000000	23.164904
5644.000000	23.210401
5642.000000	23.255461
5640.000000	23.299788
5638.000000	23.344632
5636.000000	23.389401
5634.000000	23.434770
5632.000000	23.479824
5630.000000	23.526268
5628.000000	23.571851
5626.000000	23.616314
5624.000000	23.660116
5622.000000	23.704691
5620.000000	23.751146
5618.000000	23.797698
5616.000000	23.843777
5614.000000	23.889303
5612.000000	23.933920
5610.000000	23.980118
5608.000000	24.025684
5606.000000	24.070530
5604.000000	24.114754
5602.000000	24.159212
5600.000000	24.205709
5598.000000	24.252900
5596.000000	24.299965
5594.000000	24.346740
5592.000000	24.392192
5590.000000	24.437799
5588.000000	24.484095
5586.000000	24.530538
5584.000000	24.578079
5582.000000	24.626073
5580.000000	24.673011
5578.000000	24.719674
5576.000000	24.765706
5574.000000	24.813612
5572.000000	24.861321
5570.000000	24.908505
5568.000000	24.955442
5566.000000	25.003464
5564.000000	25.051960
5562.000000	25.099646
5560.000000	25.145957
5558.000000	25.192674
5556.000000	25.239869
5554.000000	25.286841
5552.000000	25.332730
5550.000000	25.380042
5548.000000	25.427548
5546.000000	25.476562
5544.000000	25.525299
5542.000000	25.572922
5540.000000	25.617855
5538.000000	25.662372
5536.000000	25.710041
5534.000000	25.760218
5532.000000	25.809059
5530.000000	25.856105
5528.000000	25.901581
5526.000000	25.946735
5524.000000	25.991669
5522.000000	26.038547
5520.000000	26.086629
5518.000000	26.135240
5516.000000	26.182030
5514.000000	26.229579
5512.000000	26.276759
5510.000000	26.323294
5508.000000	26.370301
5506.000000	26.418792
5504.000000	26.468932
5502.000000	26.518053
5500.000000	26.566255
5498.000000	26.611577
5496.000000	26.652691
5494.000000	26.695481
5492.000000	26.743165
5490.000000	26.796285
5488.000000	26.849328
5486.000000	26.902089
5484.000000	26.954010
5482.000000	27.003816
5480.000000	27.049166
5478.000000	27.090584
5476.000000	27.133612
5474.000000	27.183540
5472.000000	27.236674
5470.000000	27.287627
5468.000000	27.336275
5466.000000	27.384938
5464.000000	27.432332
5462.000000	27.479193
5460.000000	27.528387
5458.000000	27.580886
5456.000000	27.634663
5454.000000	27.685113
5452.000000	27.730885
5450.000000	27.772153
5448.000000	27.814244
5446.000000	27.860391
5444.000000	27.909270
5442.000000	27.962251
5440.000000	28.015376
5438.000000	28.062415
5436.000000	28.106613
5434.000000	28.153354
5432.000000	28.201184
5430.000000	28.248776
5428.000000	28.300058
5426.000000	28.358918
5424.000000	28.417768
5422.000000	28.472290
5420.000000	28.521683
5418.000000	28.561744
5416.000000	28.593326
5414.000000	28.627524
5412.000000	28.674251
5410.000000	28.735300
5408.000000	28.799246
5406.000000	28.857768
5404.000000	28.909840
5402.000000	28.958584
5400.000000	29.004600
5398.000000	29.045715
5396.000000	29.085917
5394.000000	29.133682
5392.000000	29.189501
5390.000000	29.244680
5388.000000	29.294118
5386.000000	29.343520
5384.000000	29.397639
5382.000000	29.451139
5380.000000	29.495911
5378.000000	29.537774
5376.000000	29.586971
5374.000000	29.646935
5372.000000	29.709514
5370.000000	29.766393
5368.000000	29.816672
5366.000000	29.863578
5364.000000	29.910745
5362.000000	29.961245
5360.000000	30.014106
5358.000000	30.061214
5356.000000	30.100311
5354.000000	30.143192
5352.000000	30.195574
5350.000000	30.250610
5348.000000	30.293374
5346.000000	30.333944
5344.000000	30.383676
5342.000000	30.435271
5340.000000	30.481823
5338.000000	30.530377
5336.000000	30.589440
5334.000000	30.651629
5332.000000	30.705035
5330.000000	30.751651
5328.000000	30.799758
5326.000000	30.855019
5324.000000	30.914818
5322.000000	30.970458
5320.000000	31.019769
5318.000000	31.068773
5316.000000	31.119057
5314.000000	31.170961
5312.000000	31.220194
5310.000000	31.265725
5308.000000	31.311778
5306.000000	31.363016
5304.000000	31.417793
5302.000000	31.470203
5300.000000	31.521419
5298.000000	31.574518
5296.000000	31.627759
5294.000000	31.675772
5292.000000	31.720804
5290.000000	31.769774
5288.000000	31.823464
5286.000000	31.879848
5284.000000	31.933324
5282.000000	31.986605
5280.000000	32.040275
5278.000000	32.094578
5276.000000	32.147184
5274.000000	32.198294
5272.000000	32.248176
5270.000000	32.297672
5268.000000	32.341949
5266.000000	32.381503
5264.000000	32.426003
5262.000000	32.484213
5260.000000	32.547693
5258.000000	32.600761
5256.000000	32.646295
5254.000000	32.697295
5252.000000	32.749872
5250.000000	32.797649
5248.000000	32.842841
5246.000000	32.896129
5244.000000	32.956804
5242.000000	33.018094
5240.000000	33.076963
5238.000000	33.131773
5236.000000	33.181699
5234.000000	33.227987
5232.000000	33.276030
5230.000000	33.324071
5228.000000	33.368600
5226.000000	33.416155
5224.000000	33.471219
5222.000000	33.528258
5220.000000	33.581325
5218.000000	33.634924
5216.000000	33.691245
5214.000000	33.746426
5212.000000	33.793770
5210.000000	33.832906
5208.000000	33.874034
5206.000000	33.930350
5204.000000	33.997632
5202.000000	34.061638
5200.000000	34.114485
5198.000000	34.164147
5196.000000	34.217328
5194.000000	34.273679
5192.000000	34.327105
5190.000000	34.378396
5188.000000	34.428855
5186.000000	34.481246
5184.000000	34.537128
5182.000000	34.595332
5180.000000	34.652178
5178.000000	34.706739
5176.000000	34.761776
5174.000000	34.816957
5172.000000	34.870915
5170.000000	34.925193
5168.000000	34.978278
5166.000000	35.030268
5164.000000	35.082918
5162.000000	35.138412
5160.000000	35.193505
5158.000000	35.246642
5156.000000	35.300497
5154.000000	35.356480
5152.000000	35.412444
5150.000000	35.467862
5148.000000	35.521915
5146.000000	35.574223
5144.000000	35.625394
5142.000000	35.678668
5140.000000	35.734039
5138.000000	35.788816
5136.000000	35.842284
5134.000000	35.894656
5132.000000	35.948058
5130.000000	36.003447
5128.000000	36.058946
5126.000000	36.112562
5124.000000	36.164905
5122.000000	36.218577
5120.000000	36.272127
5118.000000	36.324491
5116.000000	36.377333
5114.000000	36.433000
5112.000000	36.489513
5110.000000	36.543355
5108.000000	36.595107
5106.000000	36.649630
5104.000000	36.707268
5102.000000	36.764420
5100.000000	36.819985
5098.000000	36.875574
5096.000000	36.931906
5094.000000	36.988682
5092.000000	37.044410
5090.000000	37.099773
5088.000000	37.155382
5086.000000	37.212700
5084.000000	37.269907
5082.000000	37.326362
5080.000000	37.382189
5078.000000	37.437672
5076.000000	37.493212
5074.000000	37.550341
5072.000000	37.608178
5070.000000	37.665057
5068.000000	37.720039
5066.000000	37.775122
5064.000000	37.829701
5062.000000	37.885675
5060.000000	37.943216
5058.000000	38.001019
5056.000000	38.056481
5054.000000	38.111338
5052.000000	38.166797
5050.000000	38.221952
5048.000000	38.277100
5046.000000	38.334115
5044.000000	38.391857
5042.000000	38.448167
5040.000000	38.501634
5038.000000	38.554724
5036.000000	38.608930
5034.000000	38.666258
5032.000000	38.723583
5030.000000	38.779017
5028.000000	38.833936
5026.000000	38.889840
5024.000000	38.944580
5022.000000	38.999211
5020.000000	39.056063
5018.000000	39.113070
5016.000000	39.167257
5014.000000	39.221479
5012.000000	39.278642
5010.000000	39.337983
5008.000000	39.395879
5006.000000	39.453170
5004.000000	39.510712
5002.000000	39.568667
5000.000000	39.625063
4998.000000	39.681797
4996.000000	39.738772
4994.000000	39.796314
4992.000000	39.854653
4990.000000	39.913859
4988.000000	39.971651
4986.000000	40.027588
4984.000000	40.083747
4982.000000	40.141521
4980.000000	40.200579
4978.000000	40.260682
4976.000000	40.320453
4974.000000	40.378673
4972.000000	40.435316
4970.000000	40.493054
4968.000000	40.550734
4966.000000	40.607745
4964.000000	40.664224
4962.000000	40.721768
4960.000000	40.778809
4958.000000	40.835009
4956.000000	40.890890
4954.000000	40.947479
4952.000000	41.004059
4950.000000	41.060418
4948.000000	41.115944
4946.000000	41.172479
4944.000000	41.230224
4942.000000	41.287469
4940.000000	41.341843
4938.000000	41.396214
4936.000000	41.452409
4934.000000	41.510210
4932.000000	41.567582
4930.000000	41.624502
4928.000000	41.680609
4926.000000	41.738312
4924.000000	41.794875
4922.000000	41.850317
4920.000000	41.906512
4918.000000	41.965926
4916.000000	42.023695
4914.000000	42.079020
4912.000000	42.135157
4910.000000	42.194920
4908.000000	42.254610
4906.000000	42.312170
4904.000000	42.368676
4902.000000	42.426367
4900.000000	42.484226
4898.000000	42.543215
4896.000000	42.604030
4894.000000	42.664934
4892.000000	42.724144
4890.000000	42.783022
4888.000000	42.841731
4886.000000	42.899895
4884.000000	42.957755
4882.000000	43.016726
4880.000000	43.076087
4878.000000	43.136326
4876.000000	43.195273
4874.000000	43.253746
4872.000000	43.311347
4870.000000	43.368715
4868.000000	43.425962
4866.000000	43.484084
4864.000000	43.542582
4862.000000	43.601817
4860.000000	43.660569
4858.000000	43.718274
4856.000000	43.775405
4854.000000	43.833569
4852.000000	43.892121
4850.000000	43.951031
4848.000000	44.008579
4846.000000	44.065362
4844.000000	44.121306
4842.000000	44.177886
4840.000000	44.234861
4838.000000	44.292820
4836.000000	44.350660
4834.000000	44.408271
4832.000000	44.464204
4830.000000	44.519659
4828.000000	44.575672
4826.000000	44.633531
4824.000000	44.692182
4822.000000	44.751812
4820.000000	44.810670
4818.000000	44.868928
4816.000000	44.926203
4814.000000	44.985206
4812.000000	45.045094
4810.000000	45.104244
4808.000000	45.162200
4806.000000	45.221689
4804.000000	45.282571
4802.000000	45.343744
4800.000000	45.403597
4798.000000	45.463292
4796.000000	45.523005
4794.000000	45.582386
4792.000000	45.641587
4790.000000	45.701491
4788.000000	45.762075
4786.000000	45.823031
4784.000000	45.882638
4782.000000	45.940683
4780.000000	45.998966
4778.000000	46.059158
4776.000000	46.119707
4774.000000	46.180015
4772.000000	46.238462
4770.000000	46.296717
4768.000000	46.356708
4766.000000	46.417304
4764.000000	46.475584
4762.000000	46.533307
4760.000000	46.592810
4758.000000	46.652977
4756.000000	46.710757
4754.000000	46.767554
4752.000000	46.825096
4750.000000	46.884322
4748.000000	46.943791
4746.000000	47.002362
4744.000000	47.059195
4742.000000	47.116284
4740.000000	47.174056
4738.000000	47.232828
4736.000000	47.290547
4734.000000	47.347906
4732.000000	47.405126
4730.000000	47.463956
4728.000000	47.523086
4726.000000	47.583795
4724.000000	47.644416
4722.000000	47.703647
4720.000000	47.761644
4718.000000	47.821263
4716.000000	47.881011
4714.000000	47.941733
4712.000000	48.004411
4710.000000	48.068589
4708.000000	48.130836
4706.000000	48.192396
4704.000000	48.253835
4702.000000	48.315923
4700.000000	48.378642
4698.000000	48.441776
4696.000000	48.503258
4694.000000	48.565026
4692.000000	48.627483
4690.000000	48.689407
4688.000000	48.749756
4686.000000	48.811787
4684.000000	48.873106
4682.000000	48.933705
4680.000000	48.994352
4678.000000	49.055708
4676.000000	49.116458
4674.000000	49.177661
4672.000000	49.237498
4670.000000	49.296798
4668.000000	49.357578
4666.000000	49.419365
4664.000000	49.480165
4662.000000	49.539794
4660.000000	49.599659
4658.000000	49.661661
4656.000000	49.724069
4654.000000	49.784911
4652.000000	49.844103
4650.000000	49.903570
4648.000000	49.964434
4646.000000	50.025886
4644.000000	50.085788
4642.000000	50.146674
4640.000000	50.209628
4638.000000	50.270922
4636.000000	50.329933
4634.000000	50.391911
4632.000000	50.454038
4630.000000	50.513358
4628.000000	50.573011
4626.000000	50.635676
4624.000000	50.696559
4622.000000	50.756096
4620.000000	50.817427
4618.000000	50.881929
4616.000000	50.946523
4614.000000	51.009254
4612.000000	51.071178
4610.000000	51.136260
4608.000000	51.202115
4606.000000	51.265945
4604.000000	51.329258
4602.000000	51.393874
4600.000000	51.458413
4598.000000	51.523601
4596.000000	51.588877
4594.000000	51.653226
4592.000000	51.717041
4590.000000	51.781230
4588.000000	51.844078
4586.000000	51.907077
4584.000000	51.970840
4582.000000	52.035704
4580.000000	52.100725
4578.000000	52.165412
4576.000000	52.227799
4574.000000	52.290200
4572.000000	52.353887
4570.000000	52.418104
4568.000000	52.481495
4566.000000	52.543840
4564.000000	52.606089
4562.000000	52.670770
4560.000000	52.735299
4558.000000	52.797628
4556.000000	52.858999
4554.000000	52.921180
4552.000000	52.984021
4550.000000	53.046655
4548.000000	53.107279
4546.000000	53.167905
4544.000000	53.230566
4542.000000	53.295067
4540.000000	53.358410
4538.000000	53.420187
4536.000000	53.481039
4534.000000	53.542521
4532.000000	53.604604
4530.000000	53.668923
4528.000000	53.733346
4526.000000	53.796004
4524.000000	53.858146
4522.000000	53.923508
4520.000000	53.990280
4518.000000	54.054779
4516.000000	54.116935
4514.000000	54.179883
4512.000000	54.244656
4510.000000	54.310448
4508.000000	54.375663
4506.000000	54.441031
4504.000000	54.506209
4502.000000	54.570365
4500.000000	54.634802
4498.000000	54.702474
4496.000000	54.769115
4494.000000	54.832880
4492.000000	54.896125
4490.000000	54.962118
4488.000000	55.028406
4486.000000	55.092782
4484.000000	55.155317
4482.000000	55.219201
4480.000000	55.283217
4478.000000	55.346010
4476.000000	55.408936
4474.000000	55.473816
4472.000000	55.538439
4470.000000	55.602458
4468.000000	55.667075
4466.000000	55.730497
4464.000000	55.789587
4462.000000	55.849156
4460.000000	55.911883
4458.000000	55.975324
4456.000000	56.037046
4454.000000	56.098906
4452.000000	56.159912
4450.000000	56.221609
4448.000000	56.284181
4446.000000	56.348020
4444.000000	56.410848
4442.000000	56.473342
4440.000000	56.534516
4438.000000	56.595417
4436.000000	56.656877
4434.000000	56.721110
4432.000000	56.785660
4430.000000	56.848390
4428.000000	56.909669
4426.000000	56.972793
4424.000000	57.037021
4422.000000	57.100569
4420.000000	57.163508
4418.000000	57.227852
4416.000000	57.293199
4414.000000	57.358314
4412.000000	57.421305
4410.000000	57.483745
4408.000000	57.547631
4406.000000	57.613301
4404.000000	57.678096
4402.000000	57.742097
4400.000000	57.805854
4398.000000	57.870033
4396.000000	57.933691
4394.000000	57.998221
4392.000000	58.062266
4390.000000	58.124434
4388.000000	58.185174
4386.000000	58.247366
4384.000000	58.309617
4382.000000	58.371062
4380.000000	58.430206
4378.000000	58.489680
4376.000000	58.551137
4374.000000	58.612475
4372.000000	58.671240
4370.000000	58.729504
4368.000000	58.787289
4366.000000	58.846867
4364.000000	58.910149
4362.000000	58.974181
4360.000000	59.035227
4358.000000	59.095959
4356.000000	59.157578
4354.000000	59.219474
4352.000000	59.283074
4350.000000	59.348174
4348.000000	59.411070
4346.000000	59.473439
4344.000000	59.536574
4342.000000	59.599037
4340.000000	59.660461
4338.000000	59.723668
4336.000000	59.788115
4334.000000	59.851921
4332.000000	59.915093
4330.000000	59.979344
4328.000000	60.043376
4326.000000	60.108029
4324.000000	60.174438
4322.000000	60.242528
4320.000000	60.309500
4318.000000	60.376022
4316.000000	60.443748
4314.000000	60.512323
4312.000000	60.579609
4310.000000	60.647867
4308.000000	60.716453
4306.000000	60.783605
4304.000000	60.848632
4302.000000	60.913264
4300.000000	60.977705
4298.000000	61.042740
4296.000000	61.107178
4294.000000	61.171167
4292.000000	61.235676
4290.000000	61.300496
4288.000000	61.363388
4286.000000	61.425426
4284.000000	61.487592
4282.000000	61.550137
4280.000000	61.611011
4278.000000	61.670102
4276.000000	61.728811
4274.000000	61.787839
4272.000000	61.845890
4270.000000	61.904035
4268.000000	61.961860
4266.000000	62.020871
4264.000000	62.082818
4262.000000	62.147898
4260.000000	62.212014
4258.000000	62.273043
4256.000000	62.333058
4254.000000	62.396032
4252.000000	62.459821
4250.000000	62.523576
4248.000000	62.588077
4246.000000	62.651958
4244.000000	62.713762
4242.000000	62.777296
4240.000000	62.843502
4238.000000	62.909991
4236.000000	62.974527
4234.000000	63.039950
4232.000000	63.104976
4230.000000	63.167651
4228.000000	63.230911
4226.000000	63.296132
4224.000000	63.359341
4222.000000	63.422900
4220.000000	63.488276
4218.000000	63.553689
4216.000000	63.617347
4214.000000	63.682039
4212.000000	63.748255
4210.000000	63.815321
4208.000000	63.882542
4206.000000	63.949794
4204.000000	64.016088
4202.000000	64.082771
4200.000000	64.149698
4198.000000	64.217819
4196.000000	64.286151
4194.000000	64.356154
4192.000000	64.425970
4190.000000	64.492872
4188.000000	64.558461
4186.000000	64.624621
4184.000000	64.690705
4182.000000	64.758781
4180.000000	64.826134
4178.000000	64.891588
4176.000000	64.956560
4174.000000	65.021614
4172.000000	65.085757
4170.000000	65.150274
4168.000000	65.215312
4166.000000	65.281011
4164.000000	65.345628
4162.000000	65.408722
4160.000000	65.471015
4158.000000	65.534306
4156.000000	65.597740
4154.000000	65.661100
4152.000000	65.725758
4150.000000	65.792320
4148.000000	65.857519
4146.000000	65.923511
4144.000000	65.991125
4142.000000	66.056924
4140.000000	66.119991
4138.000000	66.182755
4136.000000	66.246518
4134.000000	66.313873
4132.000000	66.382102
4130.000000	66.447627
4128.000000	66.512477
4126.000000	66.580208
4124.000000	66.647523
4122.000000	66.712675
4120.000000	66.778608
4118.000000	66.846838
4116.000000	66.914333
4114.000000	66.979963
4112.000000	67.044246
4110.000000	67.108549
4108.000000	67.171759
4106.000000	67.235051
4104.000000	67.299708
4102.000000	67.365053
4100.000000	67.429887
4098.000000	67.494254
4096.000000	67.557453
4094.000000	67.622151
4092.000000	67.688181
4090.000000	67.754951
4088.000000	67.823676
4086.000000	67.895558
4084.000000	67.966009
4082.000000	68.032618
4080.000000	68.099345
4078.000000	68.168295
4076.000000	68.234213
4074.000000	68.298850
4072.000000	68.365180
4070.000000	68.431388
4068.000000	68.495539
4066.000000	68.559522
4064.000000	68.623046
4062.000000	68.686734
4060.000000	68.751664
4058.000000	68.817853
4056.000000	68.882970
4054.000000	68.948062
4052.000000	69.013991
4050.000000	69.079431
4048.000000	69.141693
4046.000000	69.202093
4044.000000	69.265146
4042.000000	69.334816
4040.000000	69.405676
4038.000000	69.473532
4036.000000	69.540643
4034.000000	69.608281
4032.000000	69.674859
4030.000000	69.741474
4028.000000	69.806813
4026.000000	69.873245
4024.000000	69.942928
4022.000000	70.011648
4020.000000	70.077876
4018.000000	70.146574
4016.000000	70.216604
4014.000000	70.285532
4012.000000	70.352359
4010.000000	70.418649
4008.000000	70.486533
4006.000000	70.557173
4004.000000	70.629091
4002.000000	70.699909
4000.000000	70.766122
3998.000000	70.829534
3996.000000	70.892426
3994.000000	70.956838
3992.000000	71.022769
3990.000000	71.089810
3988.000000	71.156632
3986.000000	71.220266
3984.000000	71.280350
3982.000000	71.343178
3980.000000	71.408391
3978.000000	71.469332
3976.000000	71.525600
3974.000000	71.585465
3972.000000	71.650826
3970.000000	71.717732
3968.000000	71.783031
3966.000000	71.844387
3964.000000	71.898646
3962.000000	71.954706
3960.000000	72.018635
3958.000000	72.083684
3956.000000	72.145407
3954.000000	72.201263
3952.000000	72.243488
3950.000000	72.282678
3948.000000	72.341637
3946.000000	72.406809
3944.000000	72.457958
3942.000000	72.528211
3940.000000	72.624540
3938.000000	72.707891
3936.000000	72.752193
3934.000000	72.767603
3932.000000	72.810139
3930.000000	72.904421
3928.000000	72.990767
3926.000000	73.042754
3924.000000	73.099944
3922.000000	73.157300
3920.000000	73.182605
3918.000000	73.223357
3916.000000	73.338578
3914.000000	73.482405
3912.000000	73.585388
3910.000000	73.640695
3908.000000	73.616337
3906.000000	73.493823
3904.000000	73.392075
3902.000000	73.423433
3900.000000	73.583005
3898.000000	73.819647
3896.000000	73.997883
3894.000000	73.999537
3892.000000	73.961922
3890.000000	74.032649
3888.000000	74.050931
3886.000000	74.027897
3884.000000	74.138390
3882.000000	74.262486
3880.000000	74.369660
3878.000000	74.504869
3876.000000	74.552431
3874.000000	74.492627
3872.000000	74.356971
3870.000000	74.323129
3868.000000	74.482490
3866.000000	74.615615
3864.000000	74.715973
3862.000000	74.890632
3860.000000	75.036591
3858.000000	74.884849
3856.000000	74.291546
3854.000000	73.885039
3852.000000	74.291533
3850.000000	75.034860
3848.000000	75.452203
3846.000000	75.526369
3844.000000	75.478466
3842.000000	75.367129
3840.000000	75.137610
3838.000000	75.039903
3836.000000	75.289165
3834.000000	75.608810
3832.000000	75.809191
3830.000000	75.963764
3828.000000	76.069479
3826.000000	76.103087
3824.000000	75.987357
3822.000000	75.836426
3820.000000	75.863188
3818.000000	75.871955
3816.000000	75.934799
3814.000000	76.296889
3812.000000	76.617788
3810.000000	76.593438
3808.000000	76.431330
3806.000000	76.434397
3804.000000	76.397867
3802.000000	76.296077
3800.000000	76.502352
3798.000000	76.829077
3796.000000	77.031028
3794.000000	77.195887
3792.000000	77.317384
3790.000000	77.384264
3788.000000	77.424424
3786.000000	77.457111
3784.000000	77.497807
3782.000000	77.511556
3780.000000	77.521660
3778.000000	77.620198
3776.000000	77.754621
3774.000000	77.802840
3772.000000	77.739347
3770.000000	77.703074
3768.000000	77.780433
3766.000000	77.896551
3764.000000	78.002139
3762.000000	78.029546
3760.000000	78.010117
3758.000000	78.059150
3756.000000	78.020946
3754.000000	77.676528
3752.000000	77.299529
3750.000000	77.331337
3748.000000	77.511071
3746.000000	77.396272
3744.000000	77.521551
3742.000000	78.121419
3740.000000	78.447493
3738.000000	78.313957
3736.000000	78.184725
3734.000000	78.273198
3732.000000	78.523832
3730.000000	78.819356
3728.000000	78.965109
3726.000000	79.005172
3724.000000	79.072072
3722.000000	79.170038
3720.000000	79.290783
3718.000000	79.397163
3716.000000	79.379227
3714.000000	79.173124
3712.000000	79.040704
3710.000000	79.215896
3708.000000	79.524090
3706.000000	79.717555
3704.000000	79.738545
3702.000000	79.741252
3700.000000	79.854342
3698.000000	79.983189
3696.000000	80.035115
3694.000000	79.970708
3692.000000	79.729780
3690.000000	79.452392
3688.000000	79.544209
3686.000000	79.980662
3684.000000	80.284208
3682.000000	80.331489
3680.000000	80.197397
3678.000000	79.846669
3676.000000	79.594435
3674.000000	79.712520
3672.000000	79.806800
3670.000000	79.903127
3668.000000	80.267864
3666.000000	80.608534
3664.000000	80.743241
3662.000000	80.777487
3660.000000	80.729992
3658.000000	80.581632
3656.000000	80.531232
3654.000000	80.555516
3652.000000	80.327090
3650.000000	80.055007
3648.000000	80.189804
3646.000000	80.595952
3644.000000	80.886654
3642.000000	80.991717
3640.000000	81.026892
3638.000000	81.038994
3636.000000	81.020394
3634.000000	80.951265
3632.000000	80.702977
3630.000000	80.381573
3628.000000	80.468093
3626.000000	80.865075
3624.000000	81.063233
3622.000000	80.963411
3620.000000	80.811128
3618.000000	80.840952
3616.000000	80.935754
3614.000000	80.929472
3612.000000	80.872674
3610.000000	80.834154
3608.000000	80.908025
3606.000000	81.071842
3604.000000	81.164166
3602.000000	81.160241
3600.000000	81.140887
3598.000000	81.121924
3596.000000	81.094302
3594.000000	81.099549
3592.000000	81.089307
3590.000000	80.968734
3588.000000	80.871296
3586.000000	80.957603
3584.000000	81.105413
3582.000000	81.170718
3580.000000	81.176715
3578.000000	81.172645
3576.000000	81.167550
3574.000000	81.164462
3572.000000	81.127060
3570.000000	80.997622
3568.000000	80.868060
3566.000000	80.893791
3564.000000	81.009339
3562.000000	81.076427
3560.000000	81.096668
3558.000000	81.108700
3556.000000	81.100532
3554.000000	81.067829
3552.000000	81.048051
3550.000000	81.036056
3548.000000	80.992144
3546.000000	80.958452
3544.000000	80.978859
3542.000000	81.013916
3540.000000	81.019491
3538.000000	80.996769
3536.000000	80.975335
3534.000000	80.962736
3532.000000	80.931337
3530.000000	80.877795
3528.000000	80.826684
3526.000000	80.786970
3524.000000	80.752643
3522.000000	80.731556
3520.000000	80.715752
3518.000000	80.690959
3516.000000	80.659670
3514.000000	80.618959
3512.000000	80.564426
3510.000000	80.510765
3508.000000	80.469717
3506.000000	80.415430
3504.000000	80.342915
3502.000000	80.292636
3500.000000	80.261932
3498.000000	80.214830
3496.000000	80.157805
3494.000000	80.109476
3492.000000	80.059527
3490.000000	80.000781
3488.000000	79.946842
3486.000000	79.905134
3484.000000	79.863255
3482.000000	79.826563
3480.000000	79.810963
3478.000000	79.809316
3476.000000	79.808137
3474.000000	79.810315
3472.000000	79.818515
3470.000000	79.828361
3468.000000	79.844099
3466.000000	79.873767
3464.000000	79.910196
3462.000000	79.945199
3460.000000	79.981890
3458.000000	80.018724
3456.000000	80.052710
3454.000000	80.083663
3452.000000	80.105564
3450.000000	80.112349
3448.000000	80.116204
3446.000000	80.144021
3444.000000	80.191063
3442.000000	80.247683
3440.000000	80.320051
3438.000000	80.407607
3436.000000	80.511532
3434.000000	80.633916
3432.000000	80.772054
3430.000000	80.914770
3428.000000	81.055322
3426.000000	81.189653
3424.000000	81.309771
3422.000000	81.418165
3420.000000	81.527388
3418.000000	81.637846
3416.000000	81.735078
3414.000000	81.817085
3412.000000	81.892023
3410.000000	81.959402
3408.000000	82.020117
3406.000000	82.075385
3404.000000	82.124335
3402.000000	82.173766
3400.000000	82.234085
3398.000000	82.309646
3396.000000	82.387775
3394.000000	82.456634
3392.000000	82.526198
3390.000000	82.603877
3388.000000	82.676294
3386.000000	82.736745
3384.000000	82.793648
3382.000000	82.850386
3380.000000	82.905523
3378.000000	82.958699
3376.000000	83.009281
3374.000000	83.056053
3372.000000	83.096483
3370.000000	83.129923
3368.000000	83.168290
3366.000000	83.217825
3364.000000	83.269517
3362.000000	83.316513
3360.000000	83.360062
3358.000000	83.402101
3356.000000	83.442963
3354.000000	83.484848
3352.000000	83.526339
3350.000000	83.568178
3348.000000	83.611123
3346.000000	83.653399
3344.000000	83.693677
3342.000000	83.732409
3340.000000	83.768962
3338.000000	83.805669
3336.000000	83.847795
3334.000000	83.891349
3332.000000	83.932858
3330.000000	83.972359
3328.000000	84.006840
3326.000000	84.039163
3324.000000	84.076602
3322.000000	84.116363
3320.000000	84.153547
3318.000000	84.189771
3316.000000	84.224319
3314.000000	84.255586
3312.000000	84.286963
3310.000000	84.317308
3308.000000	84.343644
3306.000000	84.373715
3304.000000	84.415861
3302.000000	84.461163
3300.000000	84.499606
3298.000000	84.534136
3296.000000	84.568717
3294.000000	84.601064
3292.000000	84.633873
3290.000000	84.675319
3288.000000	84.719596
3286.000000	84.758330
3284.000000	84.795002
3282.000000	84.832959
3280.000000	84.870852
3278.000000	84.906698
3276.000000	84.941404
3274.000000	84.977092
3272.000000	85.014153
3270.000000	85.056048
3268.000000	85.103571
3266.000000	85.149462
3264.000000	85.194309
3262.000000	85.237630
3260.000000	85.279501
3258.000000	85.322393
3256.000000	85.366061
3254.000000	85.412533
3252.000000	85.463244
3250.000000	85.512292
3248.000000	85.555901
3246.000000	85.600171
3244.000000	85.651868
3242.000000	85.706435
3240.000000	85.757743
3238.000000	85.807175
3236.000000	85.853657
3234.000000	85.896787
3232.000000	85.944464
3230.000000	85.996968
3228.000000	86.049348
3226.000000	86.102231
3224.000000	86.152095
3222.000000	86.196320
3220.000000	86.241938
3218.000000	86.291602
3216.000000	86.339685
3214.000000	86.388596
3212.000000	86.439498
3210.000000	86.491351
3208.000000	86.548814
3206.000000	86.612235
3204.000000	86.681093
3202.000000	86.750897
3200.000000	86.818621
3198.000000	86.887608
3196.000000	86.960545
3194.000000	87.034724
3192.000000	87.107703
3190.000000	87.180869
3188.000000	87.252384
3186.000000	87.322117
3184.000000	87.393955
3182.000000	87.464996
3180.000000	87.534350
3178.000000	87.604796
3176.000000	87.676740
3174.000000	87.749674
3172.000000	87.823503
3170.000000	87.898112
3168.000000	87.971211
3166.000000	88.045392
3164.000000	88.123747
3162.000000	88.201894
3160.000000	88.279081
3158.000000	88.357350
3156.000000	88.433773
3154.000000	88.505931
3152.000000	88.581566
3150.000000	88.663821
3148.000000	88.744023
3146.000000	88.820475
3144.000000	88.895570
3142.000000	88.966940
3140.000000	89.037136
3138.000000	89.109982
3136.000000	89.181067
3134.000000	89.247300
3132.000000	89.314855
3130.000000	89.382440
3128.000000	89.446684
3126.000000	89.511111
3124.000000	89.570899
3122.000000	89.622354
3120.000000	89.673256
3118.000000	89.724646
3116.000000	89.779136
3114.000000	89.839821
3112.000000	89.897232
3110.000000	89.947832
3108.000000	90.001902
3106.000000	90.060690
3104.000000	90.117636
3102.000000	90.175598
3100.000000	90.240789
3098.000000	90.306880
3096.000000	90.370714
3094.000000	90.437431
3092.000000	90.501662
3090.000000	90.560724
3088.000000	90.618399
3086.000000	90.671810
3084.000000	90.719414
3082.000000	90.761934
3080.000000	90.800983
3078.000000	90.840056
3076.000000	90.878923
3074.000000	90.908857
3072.000000	90.926551
3070.000000	90.936521
3068.000000	90.944957
3066.000000	90.962234
3064.000000	90.995543
3062.000000	91.042451
3060.000000	91.096129
3058.000000	91.152131
3056.000000	91.213554
3054.000000	91.278834
3052.000000	91.336865
3050.000000	91.385724
3048.000000	91.434508
3046.000000	91.478332
3044.000000	91.509921
3042.000000	91.535650
3040.000000	91.562072
3038.000000	91.581668
3036.000000	91.589994
3034.000000	91.590188
3032.000000	91.579938
3030.000000	91.548746
3028.000000	91.481680
3026.000000	91.373204
3024.000000	91.243665
3022.000000	91.126843
3020.000000	91.061913
3018.000000	91.089639
3016.000000	91.232079
3014.000000	91.470040
3012.000000	91.755333
3010.000000	92.031193
3008.000000	92.255733
3006.000000	92.416890
3004.000000	92.529300
3002.000000	92.611323
3000.000000	92.671946
2998.000000	92.712102
2996.000000	92.740684
2994.000000	92.762037
2992.000000	92.775052
2990.000000	92.776144
2988.000000	92.761453
2986.000000	92.726677
2984.000000	92.666791
2982.000000	92.578026
2980.000000	92.458314
2978.000000	92.295391
2976.000000	92.069255
2974.000000	91.763700
2972.000000	91.370246
2970.000000	90.891760
2968.000000	90.370168
2966.000000	89.889643
2964.000000	89.536230
2962.000000	89.365958
2960.000000	89.379836
2958.000000	89.520301
2956.000000	89.712270
2954.000000	89.895613
2952.000000	90.038086
2950.000000	90.108434
2948.000000	90.071849
2946.000000	89.910068
2944.000000	89.617836
2942.000000	89.206548
2940.000000	88.715814
2938.000000	88.204266
2936.000000	87.731182
2934.000000	87.310301
2932.000000	86.912323
2930.000000	86.523151
2928.000000	86.194197
2926.000000	86.030245
2924.000000	86.138289
2922.000000	86.559522
2920.000000	87.236712
2918.000000	88.054850
2916.000000	88.907426
2914.000000	89.710207
2912.000000	90.400640
2910.000000	90.949851
2908.000000	91.378733
2906.000000	91.727074
2904.000000	92.028820
2902.000000	92.304105
2900.000000	92.560463
2898.000000	92.799641
2896.000000	93.023884
2894.000000	93.236136
2892.000000	93.439752
2890.000000	93.629668
2888.000000	93.794603
2886.000000	93.924002
2884.000000	94.011261
2882.000000	94.052520
2880.000000	94.049423
2878.000000	93.998320
2876.000000	93.889028
2874.000000	93.714164
2872.000000	93.460696
2870.000000	93.098605
2868.000000	92.611898
2866.000000	92.038419
2864.000000	91.497520
2862.000000	91.144760
2860.000000	91.071623
2858.000000	91.241106
2856.000000	91.542275
2854.000000	91.897181
2852.000000	92.310454
2850.000000	92.820501
2848.000000	93.425574
2846.000000	94.045561
2844.000000	94.588145
2842.000000	95.019813
2840.000000	95.357402
2838.000000	95.627255
2836.000000	95.848567
2834.000000	96.030699
2832.000000	96.185583
2830.000000	96.320047
2828.000000	96.441422
2826.000000	96.552672
2824.000000	96.654038
2822.000000	96.748062
2820.000000	96.834842
2818.000000	96.911524
2816.000000	96.982416
2814.000000	97.049283
2812.000000	97.108678
2810.000000	97.159919
2808.000000	97.209576
2806.000000	97.260138
2804.000000	97.308443
2802.000000	97.351312
2800.000000	97.391363
2798.000000	97.431169
2796.000000	97.474064
2794.000000	97.520083
2792.000000	97.568077
2790.000000	97.622979
2788.000000	97.692901
2786.000000	97.773966
2784.000000	97.858313
2782.000000	97.938466
2780.000000	98.013408
2778.000000	98.082329
2776.000000	98.145695
2774.000000	98.204130
2772.000000	98.259311
2770.000000	98.310738
2768.000000	98.361034
2766.000000	98.411810
2764.000000	98.461716
2762.000000	98.508710
2760.000000	98.554871
2758.000000	98.598514
2756.000000	98.641552
2754.000000	98.683572
2752.000000	98.723075
2750.000000	98.759279
2748.000000	98.796535
2746.000000	98.833812
2744.000000	98.870650
2742.000000	98.906685
2740.000000	98.942176
2738.000000	98.977235
2736.000000	99.011818
2734.000000	99.045626
2732.000000	99.079230
2730.000000	99.111751
2728.000000	99.145129
2726.000000	99.178350
2724.000000	99.211016
2722.000000	99.242328
2720.000000	99.273315
2718.000000	99.305651
2716.000000	99.337343
2714.000000	99.365926
2712.000000	99.393173
2710.000000	99.416322
2708.000000	99.438281
2706.000000	99.462346
2704.000000	99.493165
2702.000000	99.531691
2700.000000	99.575698
2698.000000	99.621659
2696.000000	99.671331
2694.000000	99.719413
2692.000000	99.761872
2690.000000	99.803356
2688.000000	99.846886
2686.000000	99.888421
2684.000000	99.928855
2682.000000	99.965147
2680.000000	99.999567
2678.000000	100.032490
2676.000000	100.064434
2674.000000	100.096512
2672.000000	100.128148
2670.000000	100.158800
2668.000000	100.189973
2666.000000	100.219261
2664.000000	100.247957
2662.000000	100.277199
2660.000000	100.307728
2658.000000	100.338154
2656.000000	100.372477
2654.000000	100.409359
2652.000000	100.447605
2650.000000	100.487082
2648.000000	100.528005
2646.000000	100.567732
2644.000000	100.607485
2642.000000	100.644218
2640.000000	100.679878
2638.000000	100.713643
2636.000000	100.747905
2634.000000	100.781472
2632.000000	100.813145
2630.000000	100.842764
2628.000000	100.872829
2626.000000	100.901111
2624.000000	100.929762
2622.000000	100.959991
2620.000000	100.989250
2618.000000	101.015483
2616.000000	101.042373
2614.000000	101.068607
2612.000000	101.093164
2610.000000	101.115497
2608.000000	101.135048
2606.000000	101.151183
2604.000000	101.168146
2602.000000	101.181417
2600.000000	101.190113
2598.000000	101.198996
2596.000000	101.211061
2594.000000	101.227328
2592.000000	101.250080
2590.000000	101.280835
2588.000000	101.325367
2586.000000	101.378613
2584.000000	101.436921
2582.000000	101.499950
2580.000000	101.564009
2578.000000	101.622813
2576.000000	101.675159
2574.000000	101.722327
2572.000000	101.767777
2570.000000	101.808769
2568.000000	101.847488
2566.000000	101.881429
2564.000000	101.913361
2562.000000	101.945718
2560.000000	101.975763
2558.000000	102.001504
2556.000000	102.028764
2554.000000	102.057071
2552.000000	102.084980
2550.000000	102.111622
2548.000000	102.138337
2546.000000	102.165026
2544.000000	102.192299
2542.000000	102.217733
2540.000000	102.244274
2538.000000	102.272551
2536.000000	102.301471
2534.000000	102.327656
2532.000000	102.353645
2530.000000	102.378923
2528.000000	102.403179
2526.000000	102.428077
2524.000000	102.455132
2522.000000	102.480551
2520.000000	102.505598
2518.000000	102.528641
2516.000000	102.552867
2514.000000	102.576010
2512.000000	102.598724
2510.000000	102.620440
2508.000000	102.642658
2506.000000	102.664554
2504.000000	102.687018
2502.000000	102.709393
2500.000000	102.732138
2498.000000	102.755030
2496.000000	102.782348
2494.000000	102.808713
2492.000000	102.834767
2490.000000	102.862747
2488.000000	102.891413
2486.000000	102.917342
2484.000000	102.944612
2482.000000	102.972538
2480.000000	102.998749
2478.000000	103.020533
2476.000000	103.042979
2474.000000	103.066468
2472.000000	103.088380
2470.000000	103.106655
2468.000000	103.124776
2466.000000	103.141701
2464.000000	103.158274
2462.000000	103.174934
2460.000000	103.193027
2458.000000	103.208898
2456.000000	103.225169
2454.000000	103.242865
2452.000000	103.260769
2450.000000	103.277492
2448.000000	103.296015
2446.000000	103.312202
2444.000000	103.330179
2442.000000	103.347576
2440.000000	103.363787
2438.000000	103.377562
2436.000000	103.390411
2434.000000	103.404821
2432.000000	103.420806
2430.000000	103.432398
2428.000000	103.441727
2426.000000	103.453201
2424.000000	103.470226
2422.000000	103.488210
2420.000000	103.505941
2418.000000	103.520420
2416.000000	103.532908
2414.000000	103.544255
2412.000000	103.555742
2410.000000	103.566438
2408.000000	103.579332
2406.000000	103.593895
2404.000000	103.610095
2402.000000	103.624269
2400.000000	103.638573
2398.000000	103.655546
2396.000000	103.675134
2394.000000	103.694020
2392.000000	103.712112
2390.000000	103.727598
2388.000000	103.742832
2386.000000	103.750062
2384.000000	103.745588
2382.000000	103.720108
2380.000000	103.665928
2378.000000	103.572508
2376.000000	103.437418
2374.000000	103.263634
2372.000000	103.062843
2370.000000	102.848388
2368.000000	102.642916
2366.000000	102.472199
2364.000000	102.360445
2362.000000	102.323195
2360.000000	102.371629
2358.000000	102.506872
2356.000000	102.725127
2354.000000	103.005303
2352.000000	103.313122
2350.000000	103.538604
2348.000000	103.528707
2346.000000	103.329429
2344.000000	103.116861
2342.000000	102.962801
2340.000000	102.874246
2338.000000	102.836509
2336.000000	102.838139
2334.000000	102.870133
2332.000000	102.925962
2330.000000	103.000933
2328.000000	103.097200
2326.000000	103.203571
2324.000000	103.311148
2322.000000	103.414803
2320.000000	103.516118
2318.000000	103.610293
2316.000000	103.695966
2314.000000	103.770645
2312.000000	103.836393
2310.000000	103.891958
2308.000000	103.937994
2306.000000	103.973486
2304.000000	104.003439
2302.000000	104.027940
2300.000000	104.051450
2298.000000	104.071394
2296.000000	104.090290
2294.000000	104.106730
2292.000000	104.119678
2290.000000	104.130733
2288.000000	104.143418
2286.000000	104.151770
2284.000000	104.157906
2282.000000	104.160107
2280.000000	104.157858
2278.000000	104.151456
2276.000000	104.147953
2274.000000	104.142833
2272.000000	104.137387
2270.000000	104.131929
2268.000000	104.127375
2266.000000	104.121397
2264.000000	104.119154
2262.000000	104.116904
2260.000000	104.115323
2258.000000	104.116083
2256.000000	104.119501
2254.000000	104.119199
2252.000000	104.121722
2250.000000	104.129871
2248.000000	104.138591
2246.000000	104.145571
2244.000000	104.157354
2242.000000	104.168428
2240.000000	104.181745
2238.000000	104.195899
2236.000000	104.210656
2234.000000	104.224219
2232.000000	104.238173
2230.000000	104.251708
2228.000000	104.267597
2226.000000	104.278318
2224.000000	104.288146
2222.000000	104.297462
2220.000000	104.307056
2218.000000	104.313781
2216.000000	104.321057
2214.000000	104.326971
2212.000000	104.332891
2210.000000	104.338177
2208.000000	104.345428
2206.000000	104.349320
2204.000000	104.353751
2202.000000	104.357056
2200.000000	104.362900
2198.000000	104.366962
2196.000000	104.372203
2194.000000	104.373987
2192.000000	104.375159
2190.000000	104.375307
2188.000000	104.375562
2186.000000	104.374662
2184.000000	104.375546
2182.000000	104.375541
2180.000000	104.376821
2178.000000	104.375296
2176.000000	104.372822
2174.000000	104.364146
2172.000000	104.341708
2170.000000	104.315986
2168.000000	104.325389
2166.000000	104.348541
2164.000000	104.360191
2162.000000	104.361074
2160.000000	104.359971
2158.000000	104.357607
2156.000000	104.358588
2154.000000	104.357882
2152.000000	104.357182
2150.000000	104.354162
2148.000000	104.352259
2146.000000	104.350097
2144.000000	104.352963
2142.000000	104.353551
2140.000000	104.350392
2138.000000	104.347048
2136.000000	104.346228
2134.000000	104.343097
2132.000000	104.343170
2130.000000	104.344179
2128.000000	104.344772
2126.000000	104.344287
2124.000000	104.344502
2122.000000	104.345780
2120.000000	104.347837
2118.000000	104.350128
2116.000000	104.354413
2114.000000	104.360659
2112.000000	104.370123
2110.000000	104.380420
2108.000000	104.394852
2106.000000	104.408116
2104.000000	104.421143
2102.000000	104.432221
2100.000000	104.442492
2098.000000	104.454205
2096.000000	104.469800
2094.000000	104.482891
2092.000000	104.496471
2090.000000	104.507110
2088.000000	104.524512
2086.000000	104.541270
2084.000000	104.559073
2082.000000	104.573527
2080.000000	104.589896
2078.000000	104.603728
2076.000000	104.620651
2074.000000	104.635452
2072.000000	104.654428
2070.000000	104.673181
2068.000000	104.690780
2066.000000	104.702232
2064.000000	104.724119
2062.000000	104.750257
2060.000000	104.775213
2058.000000	104.797912
2056.000000	104.819063
2054.000000	104.840581
2052.000000	104.862672
2050.000000	104.878644
2048.000000	104.899420
2046.000000	104.919984
2044.000000	104.936541
2042.000000	104.947725
2040.000000	104.968548
2038.000000	104.986056
2036.000000	104.999291
2034.000000	105.008010
2032.000000	105.006298
2030.000000	104.988680
2028.000000	105.001148
2026.000000	105.038257
2024.000000	105.060318
2022.000000	105.068141
2020.000000	105.069744
2018.000000	105.066724
2016.000000	105.090024
2014.000000	105.124428
2012.000000	105.147515
2010.000000	105.162061
2008.000000	105.177322
2006.000000	105.191202
2004.000000	105.203485
2002.000000	105.209394
2000.000000	105.213229
1998.000000	105.216790
1996.000000	105.217598
1994.000000	105.187889
1992.000000	105.162755
1990.000000	105.184713
1988.000000	105.205331
1986.000000	105.210659
1984.000000	105.208859
1982.000000	105.198302
1980.000000	105.188571
1978.000000	105.174674
1976.000000	105.158247
1974.000000	105.141913
1972.000000	105.123560
1970.000000	105.088197
1968.000000	105.039383
1966.000000	105.020805
1964.000000	105.018497
1962.000000	104.962860
1960.000000	104.841165
1958.000000	104.809820
1956.000000	104.893510
1954.000000	104.922509
1952.000000	104.902690
1950.000000	104.870398
1948.000000	104.847092
1946.000000	104.807203
1944.000000	104.730986
1942.000000	104.694495
1940.000000	104.743123
1938.000000	104.754077
1936.000000	104.731411
1934.000000	104.702980
1932.000000	104.678984
1930.000000	104.647658
1928.000000	104.619094
1926.000000	104.568544
1924.000000	104.486393
1922.000000	104.434047
1920.000000	104.350818
1918.000000	104.244705
1916.000000	104.304402
1914.000000	104.341915
1912.000000	104.284376
1910.000000	104.202498
1908.000000	104.161358
1906.000000	104.126764
1904.000000	104.081964
1902.000000	104.028844
1900.000000	103.982024
1898.000000	103.920890
1896.000000	103.857735
1894.000000	103.823506
1892.000000	103.777357
1890.000000	103.688652
1888.000000	103.710816
1886.000000	103.751079
1884.000000	103.746201
1882.000000	103.728923
1880.000000	103.712347
1878.000000	103.685123
1876.000000	103.662978
1874.000000	103.626579
1872.000000	103.509110
1870.000000	103.284268
1868.000000	103.254248
1866.000000	103.396418
1864.000000	103.462755
1862.000000	103.443826
1860.000000	103.415528
1858.000000	103.382376
1856.000000	103.355179
1854.000000	103.319162
1852.000000	103.282917
1850.000000	103.213227
1848.000000	103.087425
1846.000000	102.765503
1844.000000	102.564390
1842.000000	102.811051
1840.000000	102.971479
1838.000000	102.919391
1836.000000	102.866913
1834.000000	102.798690
1832.000000	102.591597
1830.000000	102.379764
1828.000000	102.399463
1826.000000	102.357048
1824.000000	102.348954
1822.000000	102.409971
1820.000000	102.376674
1818.000000	102.294079
1816.000000	102.230495
1814.000000	102.141075
1812.000000	101.995684
1810.000000	101.894181
1808.000000	101.863440
1806.000000	101.791985
1804.000000	101.636679
1802.000000	101.409508
1800.000000	101.280085
1798.000000	101.255308
1796.000000	101.130981
1794.000000	100.721136
1792.000000	100.477934
1790.000000	100.671585
1788.000000	100.759495
1786.000000	100.577539
1784.000000	100.443257
1782.000000	100.345674
1780.000000	100.240350
1778.000000	100.173517
1776.000000	99.942348
1774.000000	99.372389
1772.000000	99.075883
1770.000000	99.304916
1768.000000	99.422897
1766.000000	99.536518
1764.000000	99.401071
1762.000000	99.118923
1760.000000	99.109100
1758.000000	99.018103
1756.000000	98.880598
1754.000000	98.685740
1752.000000	98.164776
1750.000000	97.957862
1748.000000	98.047938
1746.000000	98.039360
1744.000000	97.889312
1742.000000	97.606521
1740.000000	97.334874
1738.000000	97.273773
1736.000000	96.654607
1734.000000	96.029891
1732.000000	96.579806
1730.000000	97.103304
1728.000000	97.216377
1726.000000	97.192655
1724.000000	97.105370
1722.000000	96.965790
1720.000000	96.373065
1718.000000	95.561881
1716.000000	95.690972
1714.000000	96.248895
1712.000000	96.502243
1710.000000	96.430144
1708.000000	96.175178
1706.000000	95.871828
1704.000000	95.697199
1702.000000	94.939664
1700.000000	94.370538
1698.000000	94.551479
1696.000000	94.477193
1694.000000	95.158121
1692.000000	95.753759
1690.000000	95.695786
1688.000000	95.363915
1686.000000	94.334253
1684.000000	93.937963
1682.000000	94.825165
1680.000000	95.321245
1678.000000	95.182662
1676.000000	94.729314
1674.000000	94.700548
1672.000000	94.712104
1670.000000	94.417884
1668.000000	94.548266
1666.000000	94.752530
1664.000000	94.505070
1662.000000	94.362221
1660.000000	94.492009
1658.000000	94.394637
1656.000000	93.523365
1654.000000	91.922651
1652.000000	91.996718
1650.000000	93.196472
1648.000000	93.082781
1646.000000	92.817898
1644.000000	93.239979
1642.000000	93.468082
1640.000000	93.265102
1638.000000	92.642631
1636.000000	91.917011
1634.000000	92.154683
1632.000000	92.579610
1630.000000	92.399614
1628.000000	92.039472
1626.000000	91.660097
1624.000000	91.111957
1622.000000	90.738108
1620.000000	90.335407
1618.000000	89.416035
1616.000000	88.937294
1614.000000	89.016463
1612.000000	88.577509
1610.000000	87.953916
1608.000000	87.632058
1606.000000	87.660504
1604.000000	87.855901
1602.000000	88.100469
1600.000000	88.338137
1598.000000	88.544877
1596.000000	88.692755
1594.000000	88.806094
1592.000000	88.871924
1590.000000	88.874265
1588.000000	88.836708
1586.000000	88.772634
1584.000000	88.699229
1582.000000	88.646909
1580.000000	88.519364
1578.000000	87.897590
1576.000000	87.451537
1574.000000	87.996557
1572.000000	88.149844
1570.000000	87.792725
1568.000000	87.790002
1566.000000	87.787030
1564.000000	87.498517
1562.000000	86.579342
1560.000000	85.140521
1558.000000	85.127573
1556.000000	86.118386
1554.000000	86.705013
1552.000000	87.179222
1550.000000	87.471835
1548.000000	87.648806
1546.000000	87.588474
1544.000000	87.339104
1542.000000	86.850860
1540.000000	86.605444
1538.000000	87.548302
1536.000000	88.480183
1534.000000	88.540250
1532.000000	88.792881
1530.000000	89.039401
1528.000000	88.912491
1526.000000	88.697554
1524.000000	88.414030
1522.000000	87.883012
1520.000000	87.933328
1518.000000	88.144675
1516.000000	88.063367
1514.000000	87.988657
1512.000000	87.793948
1510.000000	87.344291
1508.000000	86.243809
1506.000000	85.583759
1504.000000	85.736480
1502.000000	84.876131
1500.000000	82.436375
1498.000000	79.172573
1496.000000	76.661815
1494.000000	76.246726
1492.000000	77.340263
1490.000000	79.106376
1488.000000	81.043345
1486.000000	82.621797
1484.000000	83.654994
1482.000000	84.168202
1480.000000	84.405437
1478.000000	84.344307
1476.000000	84.026642
1474.000000	83.535704
1472.000000	83.345258
1470.000000	83.542213
1468.000000	83.381697
1466.000000	82.816460
1464.000000	82.427781
1462.000000	82.144841
1460.000000	81.224930
1458.000000	79.641264
1456.000000	78.615715
1454.000000	78.241486
1452.000000	77.759489
1450.000000	77.835619
1448.000000	78.668626
1446.000000	79.643200
1444.000000	80.130938
1442.000000	80.245184
1440.000000	80.150815
1438.000000	79.793848
1436.000000	79.767728
1434.000000	80.196617
1432.000000	80.285146
1430.000000	80.219898
1428.000000	80.250336
1426.000000	80.255121
1424.000000	80.151886
1422.000000	79.923720
1420.000000	79.428916
1418.000000	79.361199
1416.000000	79.524388
1414.000000	79.403084
1412.000000	79.049687
1410.000000	78.522241
1408.000000	77.769394
1406.000000	76.949251
1404.000000	76.481917
1402.000000	76.497227
1400.000000	76.723001
1398.000000	77.151201
1396.000000	77.528130
1394.000000	77.848645
1392.000000	78.178026
1390.000000	78.183417
1388.000000	77.865719
1386.000000	77.588695
1384.000000	77.497486
1382.000000	77.605141
1380.000000	77.702886
1378.000000	77.646763
1376.000000	77.486259
1374.000000	77.350869
1372.000000	77.320260
1370.000000	77.229303
1368.000000	77.073194
1366.000000	76.911637
1364.000000	76.679441
1362.000000	76.493993
1360.000000	76.402465
1358.000000	76.274560
1356.000000	76.079869
1354.000000	75.875113
1352.000000	75.670321
1350.000000	75.454376
1348.000000	75.235094
1346.000000	75.007836
1344.000000	74.759259
1342.000000	74.482887
1340.000000	74.224824
1338.000000	74.087054
1336.000000	74.016199
1334.000000	73.922430
1332.000000	73.772558
1330.000000	73.580771
1328.000000	73.357098
1326.000000	73.115299
1324.000000	72.852424
1322.000000	72.568183
1320.000000	72.259345
1318.000000	71.959776
1316.000000	71.665878
1314.000000	71.355793
1312.000000	71.043221
1310.000000	70.733418
1308.000000	70.407901
1306.000000	70.076369
1304.000000	69.734096
1302.000000	69.389439
1300.000000	69.046128
1298.000000	68.701002
1296.000000	68.345461
1294.000000	67.981251
1292.000000	67.598090
1290.000000	67.203980
1288.000000	66.803314
1286.000000	66.404420
1284.000000	65.990030
1282.000000	65.558452
1280.000000	65.103381
1278.000000	64.614370
1276.000000	64.074772
1274.000000	63.463224
1272.000000	62.736284
1270.000000	61.851614
1268.000000	60.747304
1266.000000	59.429799
1264.000000	58.062553
1262.000000	56.966752
1260.000000	56.417642
1258.000000	56.422743
1256.000000	56.711774
1254.000000	56.954974
1252.000000	56.950533
1250.000000	56.705748
1248.000000	56.310254
1246.000000	55.839409
1244.000000	55.331180
1242.000000	54.816876
1240.000000	54.307608
1238.000000	53.814861
1236.000000	53.339261
1234.000000	52.877840
1232.000000	52.423367
1230.000000	51.978792
1228.000000	51.533553
1226.000000	51.084216
1224.000000	50.623870
1222.000000	50.153822
1220.000000	49.664066
1218.000000	49.155479
1216.000000	48.636536
1214.000000	48.122048
1212.000000	47.628808
1210.000000	47.176150
1208.000000	46.760716
1206.000000	46.364024
1204.000000	45.965840
1202.000000	45.569232
1200.000000	45.175316
1198.000000	44.788541
1196.000000	44.399555
1194.000000	43.996820
1192.000000	43.579399
1190.000000	43.152035
1188.000000	42.709666
1186.000000	42.238302
1184.000000	41.654499
1182.000000	40.927858
1180.000000	40.361166
1178.000000	40.112433
1176.000000	39.879284
1174.000000	39.522855
1172.000000	39.099966
1170.000000	38.654229
1168.000000	38.189048
1166.000000	37.715033
1164.000000	37.243230
1162.000000	36.779725
1160.000000	36.323849
1158.000000	35.891483
1156.000000	35.471881
1154.000000	35.051405
1152.000000	34.625062
1150.000000	34.204115
1148.000000	33.773223
1146.000000	33.333081
1144.000000	32.902289
1142.000000	32.521619
1140.000000	32.209499
1138.000000	31.898796
1136.000000	31.540843
1134.000000	31.149302
1132.000000	30.731102
1130.000000	30.302827
1128.000000	29.878464
1126.000000	29.461153
1124.000000	29.035591
1122.000000	28.596406
1120.000000	28.145467
1118.000000	27.687211
1116.000000	27.222468
1114.000000	26.756104
1112.000000	26.287071
1110.000000	25.825620
1108.000000	25.372881
1106.000000	24.939145
1104.000000	24.524279
1102.000000	24.114438
1100.000000	23.699053
1098.000000	23.291949
1096.000000	22.896487
1094.000000	22.516051
1092.000000	22.147712
1090.000000	21.793135
1088.000000	21.450934
1086.000000	21.115231
1084.000000	20.767622
1082.000000	20.409651
1080.000000	20.070584
1078.000000	19.765295
1076.000000	19.488116
1074.000000	19.254234
1072.000000	19.038235
1070.000000	18.814517
1068.000000	18.584648
1066.000000	18.354354
1064.000000	18.120483
1062.000000	17.884418
1060.000000	17.636669
1058.000000	17.349347
1056.000000	16.960603
1054.000000	16.451053
1052.000000	15.945697
1050.000000	15.646238
1048.000000	15.611110
1046.000000	15.691296
1044.000000	15.691166
1042.000000	15.573667
1040.000000	15.389112
1038.000000	15.177756
1036.000000	14.947937
1034.000000	14.710271
1032.000000	14.463834
1030.000000	14.207449
1028.000000	13.941665
1026.000000	13.671865
1024.000000	13.397772
1022.000000	13.129245
1020.000000	12.874870
1018.000000	12.641497
1016.000000	12.427694
1014.000000	12.238791
1012.000000	12.069290
1010.000000	11.908328
1008.000000	11.740503
1006.000000	11.560870
1004.000000	11.365963
1002.000000	11.156620
1000.000000	10.929498
