PE IR       SUBTECH     SPECTRUM    ASCII       PEDS        4.00        
   -1
TE109A_086_80K_after_160K_BG.ASC
20/04/21
21:56:53.00
20/04/21
21:56:53.00
Administrator
TE109A, Tuesday, April 21 2020, 086.
1000.000000
#HDR
-1
-1
#GR
cm-1
EGY
1.0
0.0
6000.000000
-2.000000
2501
8
105.344558
10.971434
#DATA
6000.000000	16.487147
5998.000000	16.520201
5996.000000	16.553362
5994.000000	16.585814
5992.000000	16.617534
5990.000000	16.649981
5988.000000	16.682939
5986.000000	16.717476
5984.000000	16.752911
5982.000000	16.785832
5980.000000	16.817943
5978.000000	16.850131
5976.000000	16.883600
5974.000000	16.917292
5972.000000	16.950860
5970.000000	16.985261
5968.000000	17.019082
5966.000000	17.052345
5964.000000	17.085357
5962.000000	17.120291
5960.000000	17.154218
5958.000000	17.187240
5956.000000	17.220278
5954.000000	17.254734
5952.000000	17.290062
5950.000000	17.325354
5948.000000	17.360297
5946.000000	17.394979
5944.000000	17.429208
5942.000000	17.463210
5940.000000	17.496180
5938.000000	17.529483
5936.000000	17.563170
5934.000000	17.597168
5932.000000	17.631736
5930.000000	17.665543
5928.000000	17.699682
5926.000000	17.735399
5924.000000	17.770054
5922.000000	17.804551
5920.000000	17.838300
5918.000000	17.874148
5916.000000	17.913044
5914.000000	17.951190
5912.000000	17.987078
5910.000000	18.022687
5908.000000	18.058985
5906.000000	18.095702
5904.000000	18.130787
5902.000000	18.165483
5900.000000	18.202786
5898.000000	18.241476
5896.000000	18.278225
5894.000000	18.313896
5892.000000	18.347820
5890.000000	18.383438
5888.000000	18.418526
5886.000000	18.454806
5884.000000	18.491211
5882.000000	18.527863
5880.000000	18.564636
5878.000000	18.600454
5876.000000	18.635931
5874.000000	18.672243
5872.000000	18.708593
5870.000000	18.744758
5868.000000	18.780369
5866.000000	18.818211
5864.000000	18.857208
5862.000000	18.896553
5860.000000	18.934806
5858.000000	18.972979
5856.000000	19.010915
5854.000000	19.049217
5852.000000	19.087931
5850.000000	19.126476
5848.000000	19.164111
5846.000000	19.202193
5844.000000	19.242696
5842.000000	19.283628
5840.000000	19.323857
5838.000000	19.364744
5836.000000	19.406496
5834.000000	19.449900
5832.000000	19.492311
5830.000000	19.533847
5828.000000	19.575464
5826.000000	19.617178
5824.000000	19.658733
5822.000000	19.698664
5820.000000	19.738402
5818.000000	19.779398
5816.000000	19.820229
5814.000000	19.859457
5812.000000	19.898966
5810.000000	19.941241
5808.000000	19.983200
5806.000000	20.023573
5804.000000	20.063287
5802.000000	20.105451
5800.000000	20.147487
5798.000000	20.186948
5796.000000	20.224399
5794.000000	20.264458
5792.000000	20.307800
5790.000000	20.351280
5788.000000	20.393820
5786.000000	20.435128
5784.000000	20.476258
5782.000000	20.517579
5780.000000	20.557357
5778.000000	20.598211
5776.000000	20.639720
5774.000000	20.681384
5772.000000	20.722903
5770.000000	20.765111
5768.000000	20.808072
5766.000000	20.851497
5764.000000	20.893623
5762.000000	20.934955
5760.000000	20.976690
5758.000000	21.018874
5756.000000	21.061075
5754.000000	21.103134
5752.000000	21.143588
5750.000000	21.183240
5748.000000	21.223953
5746.000000	21.266048
5744.000000	21.309279
5742.000000	21.349831
5740.000000	21.390141
5738.000000	21.431314
5736.000000	21.472822
5734.000000	21.513767
5732.000000	21.552481
5730.000000	21.591809
5728.000000	21.632122
5726.000000	21.674185
5724.000000	21.716570
5722.000000	21.757990
5720.000000	21.798551
5718.000000	21.840347
5716.000000	21.882987
5714.000000	21.926563
5712.000000	21.970341
5710.000000	22.016278
5708.000000	22.063187
5706.000000	22.108736
5704.000000	22.151943
5702.000000	22.195184
5700.000000	22.238473
5698.000000	22.282282
5696.000000	22.327166
5694.000000	22.373207
5692.000000	22.417504
5690.000000	22.460557
5688.000000	22.504902
5686.000000	22.552347
5684.000000	22.598562
5682.000000	22.643468
5680.000000	22.688616
5678.000000	22.733823
5676.000000	22.779426
5674.000000	22.824691
5672.000000	22.871375
5670.000000	22.917857
5668.000000	22.964240
5666.000000	23.009921
5664.000000	23.054167
5662.000000	23.098795
5660.000000	23.144264
5658.000000	23.190769
5656.000000	23.236700
5654.000000	23.282624
5652.000000	23.327756
5650.000000	23.374299
5648.000000	23.420191
5646.000000	23.466109
5644.000000	23.510222
5642.000000	23.553702
5640.000000	23.598045
5638.000000	23.643574
5636.000000	23.689197
5634.000000	23.735301
5632.000000	23.781733
5630.000000	23.828683
5628.000000	23.873738
5626.000000	23.917166
5624.000000	23.961666
5622.000000	24.008113
5620.000000	24.055016
5618.000000	24.100087
5616.000000	24.143859
5614.000000	24.188888
5612.000000	24.235218
5610.000000	24.282118
5608.000000	24.327731
5606.000000	24.373198
5604.000000	24.417549
5602.000000	24.462176
5600.000000	24.507787
5598.000000	24.555535
5596.000000	24.603445
5594.000000	24.650342
5592.000000	24.696652
5590.000000	24.742870
5588.000000	24.788584
5586.000000	24.835207
5584.000000	24.881679
5582.000000	24.927544
5580.000000	24.973981
5578.000000	25.023186
5576.000000	25.072084
5574.000000	25.120144
5572.000000	25.167261
5570.000000	25.215441
5568.000000	25.263411
5566.000000	25.311011
5564.000000	25.358962
5562.000000	25.408435
5560.000000	25.456829
5558.000000	25.502953
5556.000000	25.546875
5554.000000	25.591722
5552.000000	25.638572
5550.000000	25.687355
5548.000000	25.735856
5546.000000	25.784316
5544.000000	25.832483
5542.000000	25.880021
5540.000000	25.926860
5538.000000	25.974565
5536.000000	26.023504
5534.000000	26.071808
5532.000000	26.117094
5530.000000	26.162189
5528.000000	26.209879
5526.000000	26.259402
5524.000000	26.307030
5522.000000	26.354451
5520.000000	26.401435
5518.000000	26.448909
5516.000000	26.495690
5514.000000	26.544092
5512.000000	26.592207
5510.000000	26.639412
5508.000000	26.685326
5506.000000	26.733200
5504.000000	26.783016
5502.000000	26.832436
5500.000000	26.881283
5498.000000	26.927738
5496.000000	26.971280
5494.000000	27.015252
5492.000000	27.060866
5490.000000	27.110539
5488.000000	27.163348
5486.000000	27.218215
5484.000000	27.272553
5482.000000	27.322792
5480.000000	27.367723
5478.000000	27.409054
5476.000000	27.453155
5474.000000	27.504907
5472.000000	27.559684
5470.000000	27.611338
5468.000000	27.658882
5466.000000	27.706898
5464.000000	27.754376
5462.000000	27.802031
5460.000000	27.851435
5458.000000	27.903052
5456.000000	27.955206
5454.000000	28.005968
5452.000000	28.053215
5450.000000	28.096404
5448.000000	28.137838
5446.000000	28.183078
5444.000000	28.232618
5442.000000	28.287382
5440.000000	28.342719
5438.000000	28.391351
5436.000000	28.435088
5434.000000	28.480275
5432.000000	28.528526
5430.000000	28.577844
5428.000000	28.628569
5426.000000	28.683762
5424.000000	28.739259
5422.000000	28.793734
5420.000000	28.844444
5418.000000	28.885774
5416.000000	28.920278
5414.000000	28.960149
5412.000000	29.011771
5410.000000	29.072091
5408.000000	29.130227
5406.000000	29.184070
5404.000000	29.234281
5402.000000	29.283624
5400.000000	29.331111
5398.000000	29.374797
5396.000000	29.417508
5394.000000	29.466398
5392.000000	29.522660
5390.000000	29.578954
5388.000000	29.628357
5386.000000	29.675611
5384.000000	29.727774
5382.000000	29.781104
5380.000000	29.827768
5378.000000	29.870839
5376.000000	29.920544
5374.000000	29.979016
5372.000000	30.037946
5370.000000	30.092170
5368.000000	30.142590
5366.000000	30.192359
5364.000000	30.242869
5362.000000	30.294560
5360.000000	30.345076
5358.000000	30.391147
5356.000000	30.432728
5354.000000	30.479619
5352.000000	30.532716
5350.000000	30.586266
5348.000000	30.630095
5346.000000	30.672380
5344.000000	30.721774
5342.000000	30.773993
5340.000000	30.822890
5338.000000	30.873942
5336.000000	30.931905
5334.000000	30.990830
5332.000000	31.043756
5330.000000	31.091646
5328.000000	31.141210
5326.000000	31.194957
5324.000000	31.251156
5322.000000	31.304838
5320.000000	31.354961
5318.000000	31.405555
5316.000000	31.456455
5314.000000	31.507976
5312.000000	31.557265
5310.000000	31.603106
5308.000000	31.650600
5306.000000	31.704145
5304.000000	31.760188
5302.000000	31.812512
5300.000000	31.862243
5298.000000	31.913769
5296.000000	31.964604
5294.000000	32.011457
5292.000000	32.057447
5290.000000	32.107669
5288.000000	32.161312
5286.000000	32.217280
5284.000000	32.272629
5282.000000	32.327857
5280.000000	32.381445
5278.000000	32.434502
5276.000000	32.486832
5274.000000	32.537572
5272.000000	32.587158
5270.000000	32.637854
5268.000000	32.685103
5266.000000	32.728378
5264.000000	32.775199
5262.000000	32.833400
5260.000000	32.895781
5258.000000	32.948440
5256.000000	32.995070
5254.000000	33.046977
5252.000000	33.100850
5250.000000	33.149095
5248.000000	33.194256
5246.000000	33.245722
5244.000000	33.304413
5242.000000	33.364286
5240.000000	33.421044
5238.000000	33.473410
5236.000000	33.523524
5234.000000	33.572613
5232.000000	33.621716
5230.000000	33.670223
5228.000000	33.717040
5226.000000	33.766347
5224.000000	33.821957
5222.000000	33.881443
5220.000000	33.937047
5218.000000	33.989341
5216.000000	34.041958
5214.000000	34.094928
5212.000000	34.143500
5210.000000	34.185805
5208.000000	34.228187
5206.000000	34.281333
5204.000000	34.344925
5202.000000	34.408601
5200.000000	34.463399
5198.000000	34.515321
5196.000000	34.569907
5194.000000	34.626862
5192.000000	34.680561
5190.000000	34.731494
5188.000000	34.782558
5186.000000	34.835429
5184.000000	34.889907
5182.000000	34.946020
5180.000000	35.003304
5178.000000	35.060245
5176.000000	35.114998
5174.000000	35.167794
5172.000000	35.220727
5170.000000	35.276358
5168.000000	35.333840
5166.000000	35.389637
5164.000000	35.443030
5162.000000	35.496545
5160.000000	35.549817
5158.000000	35.601838
5156.000000	35.654443
5154.000000	35.709999
5152.000000	35.766928
5150.000000	35.822797
5148.000000	35.877984
5146.000000	35.933088
5144.000000	35.987242
5142.000000	36.040837
5140.000000	36.093368
5138.000000	36.145847
5136.000000	36.198746
5134.000000	36.253660
5132.000000	36.308542
5130.000000	36.361864
5128.000000	36.413894
5126.000000	36.467146
5124.000000	36.521180
5122.000000	36.575870
5120.000000	36.630306
5118.000000	36.684946
5116.000000	36.739472
5114.000000	36.793900
5112.000000	36.849084
5110.000000	36.905111
5108.000000	36.959869
5106.000000	37.012261
5104.000000	37.066024
5102.000000	37.123577
5100.000000	37.181560
5098.000000	37.236850
5096.000000	37.292852
5094.000000	37.350279
5092.000000	37.406677
5090.000000	37.462707
5088.000000	37.519836
5086.000000	37.577063
5084.000000	37.632003
5082.000000	37.687820
5080.000000	37.744986
5078.000000	37.802310
5076.000000	37.859082
5074.000000	37.914913
5072.000000	37.970150
5070.000000	38.025280
5068.000000	38.081090
5066.000000	38.139673
5064.000000	38.199322
5062.000000	38.256652
5060.000000	38.310872
5058.000000	38.366045
5056.000000	38.421993
5054.000000	38.477080
5052.000000	38.532015
5050.000000	38.587607
5048.000000	38.642493
5046.000000	38.698142
5044.000000	38.755514
5042.000000	38.813071
5040.000000	38.868792
5038.000000	38.923626
5036.000000	38.978154
5034.000000	39.034305
5032.000000	39.090350
5030.000000	39.146913
5028.000000	39.202641
5026.000000	39.259327
5024.000000	39.315648
5022.000000	39.371985
5020.000000	39.427095
5018.000000	39.481632
5016.000000	39.537368
5014.000000	39.595272
5012.000000	39.654009
5010.000000	39.711955
5008.000000	39.768194
5006.000000	39.823783
5004.000000	39.879904
5002.000000	39.937795
5000.000000	39.996270
4998.000000	40.055855
4996.000000	40.114594
4994.000000	40.172233
4992.000000	40.228950
4990.000000	40.286698
4988.000000	40.344172
4986.000000	40.402067
4984.000000	40.460444
4982.000000	40.519868
4980.000000	40.578441
4978.000000	40.636242
4976.000000	40.694236
4974.000000	40.752256
4972.000000	40.809988
4970.000000	40.867484
4968.000000	40.924747
4966.000000	40.982090
4964.000000	41.040100
4962.000000	41.098305
4960.000000	41.154274
4958.000000	41.210358
4956.000000	41.267661
4954.000000	41.326635
4952.000000	41.382839
4950.000000	41.437362
4948.000000	41.492957
4946.000000	41.552132
4944.000000	41.611264
4942.000000	41.667872
4940.000000	41.722869
4938.000000	41.778638
4936.000000	41.835323
4934.000000	41.892983
4932.000000	41.950523
4930.000000	42.008641
4928.000000	42.064856
4926.000000	42.119167
4924.000000	42.173738
4922.000000	42.230843
4920.000000	42.289310
4918.000000	42.348330
4916.000000	42.408977
4914.000000	42.467205
4912.000000	42.522832
4910.000000	42.580566
4908.000000	42.640222
4906.000000	42.697767
4904.000000	42.754357
4902.000000	42.813950
4900.000000	42.874723
4898.000000	42.934052
4896.000000	42.991685
4894.000000	43.049723
4892.000000	43.109109
4890.000000	43.169098
4888.000000	43.229331
4886.000000	43.288892
4884.000000	43.345924
4882.000000	43.403376
4880.000000	43.463119
4878.000000	43.523049
4876.000000	43.581250
4874.000000	43.639766
4872.000000	43.698645
4870.000000	43.757766
4868.000000	43.816377
4866.000000	43.874660
4864.000000	43.932363
4862.000000	43.991459
4860.000000	44.050447
4858.000000	44.108585
4856.000000	44.164990
4854.000000	44.222690
4852.000000	44.281503
4850.000000	44.340507
4848.000000	44.398301
4846.000000	44.457378
4844.000000	44.516503
4842.000000	44.573884
4840.000000	44.628952
4838.000000	44.684693
4836.000000	44.742106
4834.000000	44.800355
4832.000000	44.857294
4830.000000	44.913874
4828.000000	44.972099
4826.000000	45.031572
4824.000000	45.089496
4822.000000	45.146731
4820.000000	45.204561
4818.000000	45.263254
4816.000000	45.320981
4814.000000	45.379235
4812.000000	45.438678
4810.000000	45.499383
4808.000000	45.559483
4806.000000	45.619601
4804.000000	45.679428
4802.000000	45.738857
4800.000000	45.797869
4798.000000	45.858190
4796.000000	45.918942
4794.000000	45.980000
4792.000000	46.039957
4790.000000	46.099558
4788.000000	46.159548
4786.000000	46.221898
4784.000000	46.284526
4782.000000	46.345619
4780.000000	46.403818
4778.000000	46.462057
4776.000000	46.523040
4774.000000	46.585521
4772.000000	46.645186
4770.000000	46.702905
4768.000000	46.760341
4766.000000	46.818975
4764.000000	46.878838
4762.000000	46.939376
4760.000000	46.997700
4758.000000	47.055117
4756.000000	47.112926
4754.000000	47.171046
4752.000000	47.229000
4750.000000	47.288307
4748.000000	47.346858
4746.000000	47.403918
4744.000000	47.460968
4742.000000	47.519747
4740.000000	47.578453
4738.000000	47.637221
4736.000000	47.694851
4734.000000	47.752008
4732.000000	47.810879
4730.000000	47.871318
4728.000000	47.930122
4726.000000	47.988000
4724.000000	48.046677
4722.000000	48.106039
4720.000000	48.165831
4718.000000	48.226721
4716.000000	48.287712
4714.000000	48.349100
4712.000000	48.410767
4710.000000	48.473767
4708.000000	48.537344
4706.000000	48.600693
4704.000000	48.663135
4702.000000	48.726346
4700.000000	48.788659
4698.000000	48.849436
4696.000000	48.910494
4694.000000	48.973797
4692.000000	49.035907
4690.000000	49.096394
4688.000000	49.156510
4686.000000	49.217671
4684.000000	49.280229
4682.000000	49.343271
4680.000000	49.403935
4678.000000	49.464919
4676.000000	49.527576
4674.000000	49.589555
4672.000000	49.649669
4670.000000	49.711072
4668.000000	49.772974
4666.000000	49.834115
4664.000000	49.894631
4662.000000	49.955763
4660.000000	50.016593
4658.000000	50.076860
4656.000000	50.137178
4654.000000	50.196687
4652.000000	50.256022
4650.000000	50.317999
4648.000000	50.381102
4646.000000	50.442680
4644.000000	50.503975
4642.000000	50.565603
4640.000000	50.625478
4638.000000	50.684791
4636.000000	50.745026
4634.000000	50.806320
4632.000000	50.867428
4630.000000	50.928725
4628.000000	50.989269
4626.000000	51.049252
4624.000000	51.109471
4622.000000	51.172226
4620.000000	51.235614
4618.000000	51.298107
4616.000000	51.359166
4614.000000	51.422022
4612.000000	51.485548
4610.000000	51.549489
4608.000000	51.614683
4606.000000	51.680871
4604.000000	51.744885
4602.000000	51.809102
4600.000000	51.873698
4598.000000	51.937168
4596.000000	52.000654
4594.000000	52.065442
4592.000000	52.130372
4590.000000	52.195980
4588.000000	52.260639
4586.000000	52.324102
4584.000000	52.388753
4582.000000	52.455084
4580.000000	52.520560
4578.000000	52.585759
4576.000000	52.650807
4574.000000	52.714933
4572.000000	52.778004
4570.000000	52.840953
4568.000000	52.903512
4566.000000	52.966236
4564.000000	53.029018
4562.000000	53.091449
4560.000000	53.153424
4558.000000	53.215339
4556.000000	53.278570
4554.000000	53.342845
4552.000000	53.403863
4550.000000	53.464117
4548.000000	53.527601
4546.000000	53.592449
4544.000000	53.655292
4542.000000	53.717022
4540.000000	53.779619
4538.000000	53.844079
4536.000000	53.907074
4534.000000	53.968528
4532.000000	54.030431
4530.000000	54.093109
4528.000000	54.156908
4526.000000	54.221924
4524.000000	54.286122
4522.000000	54.349687
4520.000000	54.412599
4518.000000	54.475939
4516.000000	54.540661
4514.000000	54.606100
4512.000000	54.671542
4510.000000	54.736452
4508.000000	54.799710
4506.000000	54.864434
4504.000000	54.931324
4502.000000	54.997395
4500.000000	55.061238
4498.000000	55.126166
4496.000000	55.192052
4494.000000	55.257897
4492.000000	55.323491
4490.000000	55.389526
4488.000000	55.453408
4486.000000	55.516919
4484.000000	55.581812
4482.000000	55.646617
4480.000000	55.710019
4478.000000	55.774613
4476.000000	55.839312
4474.000000	55.902382
4472.000000	55.965343
4470.000000	56.030307
4468.000000	56.094663
4466.000000	56.157000
4464.000000	56.217120
4462.000000	56.277669
4460.000000	56.339877
4458.000000	56.403076
4456.000000	56.465815
4454.000000	56.528783
4452.000000	56.590252
4450.000000	56.651670
4448.000000	56.713130
4446.000000	56.774985
4444.000000	56.838587
4442.000000	56.903597
4440.000000	56.967113
4438.000000	57.029278
4436.000000	57.090221
4434.000000	57.151508
4432.000000	57.213670
4430.000000	57.276180
4428.000000	57.339838
4426.000000	57.404656
4424.000000	57.467625
4422.000000	57.530686
4420.000000	57.594975
4418.000000	57.659354
4416.000000	57.723499
4414.000000	57.787335
4412.000000	57.850777
4410.000000	57.916407
4408.000000	57.982919
4406.000000	58.047877
4404.000000	58.111969
4402.000000	58.176342
4400.000000	58.239694
4398.000000	58.303084
4396.000000	58.367524
4394.000000	58.432062
4392.000000	58.494336
4390.000000	58.555931
4388.000000	58.618831
4386.000000	58.681856
4384.000000	58.742018
4382.000000	58.801464
4380.000000	58.861272
4378.000000	58.922272
4376.000000	58.983558
4374.000000	59.044650
4372.000000	59.105251
4370.000000	59.166355
4368.000000	59.226389
4366.000000	59.286736
4364.000000	59.347394
4362.000000	59.408293
4360.000000	59.469528
4358.000000	59.531380
4356.000000	59.592729
4354.000000	59.653947
4352.000000	59.715172
4350.000000	59.777385
4348.000000	59.840411
4346.000000	59.903846
4344.000000	59.967025
4342.000000	60.030516
4340.000000	60.093274
4338.000000	60.155467
4336.000000	60.217941
4334.000000	60.280662
4332.000000	60.344319
4330.000000	60.410822
4328.000000	60.477996
4326.000000	60.544226
4324.000000	60.609565
4322.000000	60.676019
4320.000000	60.745017
4318.000000	60.814581
4316.000000	60.880328
4314.000000	60.944893
4312.000000	61.013195
4310.000000	61.083662
4308.000000	61.150842
4306.000000	61.216855
4304.000000	61.283990
4302.000000	61.350491
4300.000000	61.414185
4298.000000	61.477647
4296.000000	61.542552
4294.000000	61.608867
4292.000000	61.673398
4290.000000	61.736085
4288.000000	61.798670
4286.000000	61.861271
4284.000000	61.922705
4282.000000	61.984192
4280.000000	62.044379
4278.000000	62.102497
4276.000000	62.159927
4274.000000	62.218470
4272.000000	62.278114
4270.000000	62.338813
4268.000000	62.398356
4266.000000	62.456611
4264.000000	62.515205
4262.000000	62.576273
4260.000000	62.640135
4258.000000	62.705057
4256.000000	62.768766
4254.000000	62.832035
4252.000000	62.895003
4250.000000	62.959438
4248.000000	63.025944
4246.000000	63.092157
4244.000000	63.154796
4242.000000	63.215258
4240.000000	63.277455
4238.000000	63.344257
4236.000000	63.411318
4234.000000	63.475266
4232.000000	63.538477
4230.000000	63.603684
4228.000000	63.669496
4226.000000	63.734614
4224.000000	63.797388
4222.000000	63.859807
4220.000000	63.923390
4218.000000	63.987660
4216.000000	64.052118
4214.000000	64.118445
4212.000000	64.185009
4210.000000	64.250575
4208.000000	64.316123
4206.000000	64.383256
4204.000000	64.450020
4202.000000	64.516919
4200.000000	64.585303
4198.000000	64.654335
4196.000000	64.722209
4194.000000	64.791280
4192.000000	64.861870
4190.000000	64.931280
4188.000000	64.997887
4186.000000	65.064188
4184.000000	65.129678
4182.000000	65.194258
4180.000000	65.259744
4178.000000	65.326071
4176.000000	65.390700
4174.000000	65.455404
4172.000000	65.520745
4170.000000	65.585950
4168.000000	65.650696
4166.000000	65.714580
4164.000000	65.776409
4162.000000	65.839346
4160.000000	65.903627
4158.000000	65.968220
4156.000000	66.033220
4154.000000	66.098405
4152.000000	66.162340
4150.000000	66.227194
4148.000000	66.293534
4146.000000	66.361378
4144.000000	66.427851
4142.000000	66.491049
4140.000000	66.554088
4138.000000	66.619721
4136.000000	66.684571
4134.000000	66.750266
4132.000000	66.817294
4130.000000	66.883970
4128.000000	66.950453
4126.000000	67.016641
4124.000000	67.081128
4122.000000	67.145795
4120.000000	67.211224
4118.000000	67.278199
4116.000000	67.345892
4114.000000	67.413848
4112.000000	67.480178
4110.000000	67.544537
4108.000000	67.608274
4106.000000	67.674122
4104.000000	67.740132
4102.000000	67.804156
4100.000000	67.867399
4098.000000	67.930593
4096.000000	67.993018
4094.000000	68.057873
4092.000000	68.124499
4090.000000	68.190999
4088.000000	68.258419
4086.000000	68.329347
4084.000000	68.401085
4082.000000	68.470286
4080.000000	68.537234
4078.000000	68.604304
4076.000000	68.670625
4074.000000	68.735886
4072.000000	68.799843
4070.000000	68.864061
4068.000000	68.929031
4066.000000	68.993022
4064.000000	69.057195
4062.000000	69.124540
4060.000000	69.190219
4058.000000	69.253906
4056.000000	69.318824
4054.000000	69.384191
4052.000000	69.448854
4050.000000	69.513354
4048.000000	69.575934
4046.000000	69.638870
4044.000000	69.704797
4042.000000	69.771936
4040.000000	69.838741
4038.000000	69.906328
4036.000000	69.972921
4034.000000	70.039304
4032.000000	70.106789
4030.000000	70.174881
4028.000000	70.241828
4026.000000	70.309240
4024.000000	70.377271
4022.000000	70.444844
4020.000000	70.513613
4018.000000	70.584146
4016.000000	70.653279
4014.000000	70.721454
4012.000000	70.789252
4010.000000	70.857155
4008.000000	70.924918
4006.000000	70.993370
4004.000000	71.063716
4002.000000	71.134888
4000.000000	71.201846
3998.000000	71.264921
3996.000000	71.328411
3994.000000	71.392754
3992.000000	71.456672
3990.000000	71.523339
3988.000000	71.590800
3986.000000	71.655423
3984.000000	71.718144
3982.000000	71.782020
3980.000000	71.844916
3978.000000	71.903723
3976.000000	71.960682
3974.000000	72.021543
3972.000000	72.085493
3970.000000	72.149923
3968.000000	72.214675
3966.000000	72.276854
3964.000000	72.331367
3962.000000	72.387637
3960.000000	72.452673
3958.000000	72.519743
3956.000000	72.584098
3954.000000	72.641483
3952.000000	72.684132
3950.000000	72.725962
3948.000000	72.788113
3946.000000	72.853818
3944.000000	72.906042
3942.000000	72.975566
3940.000000	73.066537
3938.000000	73.145008
3936.000000	73.191124
3934.000000	73.215352
3932.000000	73.262896
3930.000000	73.352835
3928.000000	73.435644
3926.000000	73.488862
3924.000000	73.546454
3922.000000	73.605577
3920.000000	73.638897
3918.000000	73.684854
3916.000000	73.792461
3914.000000	73.922479
3912.000000	74.018075
3910.000000	74.076539
3908.000000	74.066246
3906.000000	73.972038
3904.000000	73.900173
3902.000000	73.940203
3900.000000	74.084708
3898.000000	74.292325
3896.000000	74.450932
3894.000000	74.463974
3892.000000	74.443560
3890.000000	74.510359
3888.000000	74.533551
3886.000000	74.526529
3884.000000	74.631817
3882.000000	74.745230
3880.000000	74.845019
3878.000000	74.969098
3876.000000	75.017062
3874.000000	74.975482
3872.000000	74.874350
3870.000000	74.858522
3868.000000	75.002281
3866.000000	75.124282
3864.000000	75.217707
3862.000000	75.370503
3860.000000	75.499346
3858.000000	75.381475
3856.000000	74.899548
3854.000000	74.577643
3852.000000	74.929585
3850.000000	75.556503
3848.000000	75.911520
3846.000000	75.981468
3844.000000	75.950456
3842.000000	75.868665
3840.000000	75.690015
3838.000000	75.620724
3836.000000	75.838674
3834.000000	76.113714
3832.000000	76.290113
3830.000000	76.429773
3828.000000	76.527825
3826.000000	76.564365
3824.000000	76.478689
3822.000000	76.367454
3820.000000	76.403853
3818.000000	76.422548
3816.000000	76.485917
3814.000000	76.796437
3812.000000	77.068891
3810.000000	77.056705
3808.000000	76.933940
3806.000000	76.948901
3804.000000	76.932036
3802.000000	76.859638
3800.000000	77.041131
3798.000000	77.321674
3796.000000	77.496974
3794.000000	77.642217
3792.000000	77.753844
3790.000000	77.820876
3788.000000	77.863282
3786.000000	77.898510
3784.000000	77.942083
3782.000000	77.963329
3780.000000	77.981903
3778.000000	78.074269
3776.000000	78.195737
3774.000000	78.244846
3772.000000	78.200024
3770.000000	78.178731
3768.000000	78.253441
3766.000000	78.360288
3764.000000	78.458897
3762.000000	78.494088
3760.000000	78.488995
3758.000000	78.538118
3756.000000	78.514717
3754.000000	78.236819
3752.000000	77.933539
3750.000000	77.972505
3748.000000	78.132392
3746.000000	78.044478
3744.000000	78.157184
3742.000000	78.665689
3740.000000	78.946691
3738.000000	78.845708
3736.000000	78.748459
3734.000000	78.834812
3732.000000	79.055342
3730.000000	79.309194
3728.000000	79.437795
3726.000000	79.479366
3724.000000	79.545332
3722.000000	79.638159
3720.000000	79.748012
3718.000000	79.845628
3716.000000	79.839865
3714.000000	79.677645
3712.000000	79.578144
3710.000000	79.735242
3708.000000	80.002399
3706.000000	80.171849
3704.000000	80.195498
3702.000000	80.204632
3700.000000	80.307275
3698.000000	80.423475
3696.000000	80.475874
3694.000000	80.430808
3692.000000	80.237939
3690.000000	80.015515
3688.000000	80.102250
3686.000000	80.474203
3684.000000	80.732554
3682.000000	80.775807
3680.000000	80.667112
3678.000000	80.382145
3676.000000	80.184648
3674.000000	80.293053
3672.000000	80.377101
3670.000000	80.463902
3668.000000	80.773291
3666.000000	81.060925
3664.000000	81.178814
3662.000000	81.212284
3660.000000	81.176827
3658.000000	81.059356
3656.000000	81.023118
3654.000000	81.046056
3652.000000	80.859069
3650.000000	80.639019
3648.000000	80.759713
3646.000000	81.103169
3644.000000	81.345576
3642.000000	81.435454
3640.000000	81.470276
3638.000000	81.485221
3636.000000	81.473479
3634.000000	81.418905
3632.000000	81.215402
3630.000000	80.953338
3628.000000	81.030344
3626.000000	81.360357
3624.000000	81.523071
3622.000000	81.441529
3620.000000	81.318370
3618.000000	81.346892
3616.000000	81.429386
3614.000000	81.426327
3612.000000	81.379392
3610.000000	81.346460
3608.000000	81.408982
3606.000000	81.547338
3604.000000	81.623835
3602.000000	81.619122
3600.000000	81.601628
3598.000000	81.585058
3596.000000	81.564632
3594.000000	81.573194
3592.000000	81.565286
3590.000000	81.463432
3588.000000	81.381651
3586.000000	81.451776
3584.000000	81.571807
3582.000000	81.624608
3580.000000	81.628362
3578.000000	81.623959
3576.000000	81.621415
3574.000000	81.619990
3572.000000	81.587894
3570.000000	81.479772
3568.000000	81.371168
3566.000000	81.393014
3564.000000	81.491477
3562.000000	81.546878
3560.000000	81.560972
3558.000000	81.568331
3556.000000	81.559603
3554.000000	81.530011
3552.000000	81.511633
3550.000000	81.501642
3548.000000	81.464097
3546.000000	81.433078
3544.000000	81.448106
3542.000000	81.476401
3540.000000	81.477925
3538.000000	81.455278
3536.000000	81.434355
3534.000000	81.421053
3532.000000	81.392253
3530.000000	81.344836
3528.000000	81.299313
3526.000000	81.256845
3524.000000	81.215758
3522.000000	81.191027
3520.000000	81.172616
3518.000000	81.146778
3516.000000	81.115542
3514.000000	81.075818
3512.000000	81.024360
3510.000000	80.973807
3508.000000	80.932984
3506.000000	80.878254
3504.000000	80.807564
3502.000000	80.756571
3500.000000	80.721694
3498.000000	80.673038
3496.000000	80.614834
3494.000000	80.563716
3492.000000	80.513845
3490.000000	80.457310
3488.000000	80.403523
3486.000000	80.361647
3484.000000	80.322682
3482.000000	80.287404
3480.000000	80.269027
3478.000000	80.264114
3476.000000	80.262556
3474.000000	80.266972
3472.000000	80.276774
3470.000000	80.286769
3468.000000	80.303729
3466.000000	80.334057
3464.000000	80.370210
3462.000000	80.405989
3460.000000	80.441861
3458.000000	80.477043
3456.000000	80.510259
3454.000000	80.540771
3452.000000	80.564182
3450.000000	80.574060
3448.000000	80.579053
3446.000000	80.603379
3444.000000	80.647927
3442.000000	80.705611
3440.000000	80.779186
3438.000000	80.866545
3436.000000	80.969863
3434.000000	81.093481
3432.000000	81.232036
3430.000000	81.374663
3428.000000	81.516779
3426.000000	81.653034
3424.000000	81.774203
3422.000000	81.882732
3420.000000	81.990455
3418.000000	82.099446
3416.000000	82.198692
3414.000000	82.282150
3412.000000	82.355586
3410.000000	82.421491
3408.000000	82.481783
3406.000000	82.537965
3404.000000	82.588533
3402.000000	82.639236
3400.000000	82.700969
3398.000000	82.776542
3396.000000	82.853711
3394.000000	82.923337
3392.000000	82.990726
3390.000000	83.065549
3388.000000	83.138935
3386.000000	83.201108
3384.000000	83.259804
3382.000000	83.317055
3380.000000	83.369645
3378.000000	83.420771
3376.000000	83.471394
3374.000000	83.519687
3372.000000	83.560203
3370.000000	83.593765
3368.000000	83.634040
3366.000000	83.682820
3364.000000	83.731247
3362.000000	83.776300
3360.000000	83.820190
3358.000000	83.862938
3356.000000	83.905047
3354.000000	83.946973
3352.000000	83.986615
3350.000000	84.026664
3348.000000	84.069318
3346.000000	84.111745
3344.000000	84.149928
3342.000000	84.188087
3340.000000	84.228433
3338.000000	84.266167
3336.000000	84.305932
3334.000000	84.349839
3332.000000	84.390454
3330.000000	84.426764
3328.000000	84.462003
3326.000000	84.496488
3324.000000	84.534187
3322.000000	84.573251
3320.000000	84.609419
3318.000000	84.645409
3316.000000	84.681458
3314.000000	84.715267
3312.000000	84.747762
3310.000000	84.777793
3308.000000	84.804888
3306.000000	84.835131
3304.000000	84.875374
3302.000000	84.920891
3300.000000	84.961034
3298.000000	84.994966
3296.000000	85.027839
3294.000000	85.059251
3292.000000	85.094155
3290.000000	85.136699
3288.000000	85.178762
3286.000000	85.216335
3284.000000	85.253905
3282.000000	85.292088
3280.000000	85.328803
3278.000000	85.364877
3276.000000	85.401601
3274.000000	85.439010
3272.000000	85.477383
3270.000000	85.519352
3268.000000	85.565191
3266.000000	85.609943
3264.000000	85.653552
3262.000000	85.697082
3260.000000	85.739734
3258.000000	85.782277
3256.000000	85.825252
3254.000000	85.871822
3252.000000	85.921375
3250.000000	85.968308
3248.000000	86.013267
3246.000000	86.059563
3244.000000	86.111693
3242.000000	86.166165
3240.000000	86.217006
3238.000000	86.263432
3236.000000	86.308043
3234.000000	86.354133
3232.000000	86.406117
3230.000000	86.459446
3228.000000	86.509226
3226.000000	86.559796
3224.000000	86.609866
3222.000000	86.656137
3220.000000	86.700896
3218.000000	86.748175
3216.000000	86.795280
3214.000000	86.843275
3212.000000	86.895656
3210.000000	86.950295
3208.000000	87.007916
3206.000000	87.068466
3204.000000	87.133159
3202.000000	87.203033
3200.000000	87.273980
3198.000000	87.343636
3196.000000	87.417124
3194.000000	87.492787
3192.000000	87.564218
3190.000000	87.633057
3188.000000	87.702497
3186.000000	87.771970
3184.000000	87.841276
3182.000000	87.912747
3180.000000	87.984085
3178.000000	88.052206
3176.000000	88.122126
3174.000000	88.195981
3172.000000	88.270191
3170.000000	88.342762
3168.000000	88.415011
3166.000000	88.489166
3164.000000	88.565484
3162.000000	88.642095
3160.000000	88.718817
3158.000000	88.796289
3156.000000	88.874077
3154.000000	88.947326
3152.000000	89.021319
3150.000000	89.103697
3148.000000	89.185141
3146.000000	89.260029
3144.000000	89.334048
3142.000000	89.407365
3140.000000	89.478282
3138.000000	89.549171
3136.000000	89.619095
3134.000000	89.685059
3132.000000	89.751175
3130.000000	89.818016
3128.000000	89.882533
3126.000000	89.945454
3124.000000	90.005974
3122.000000	90.060889
3120.000000	90.111504
3118.000000	90.160257
3116.000000	90.212297
3114.000000	90.270771
3112.000000	90.329448
3110.000000	90.381453
3108.000000	90.433026
3106.000000	90.489676
3104.000000	90.547481
3102.000000	90.606457
3100.000000	90.670347
3098.000000	90.735478
3096.000000	90.800010
3094.000000	90.864325
3092.000000	90.926704
3090.000000	90.986456
3088.000000	91.044634
3086.000000	91.098460
3084.000000	91.147851
3082.000000	91.192589
3080.000000	91.231228
3078.000000	91.268152
3076.000000	91.304092
3074.000000	91.331758
3072.000000	91.348759
3070.000000	91.357817
3068.000000	91.364688
3066.000000	91.380860
3064.000000	91.415296
3062.000000	91.462154
3060.000000	91.514954
3058.000000	91.571906
3056.000000	91.634018
3054.000000	91.697492
3052.000000	91.753205
3050.000000	91.802775
3048.000000	91.850992
3046.000000	91.892452
3044.000000	91.923019
3042.000000	91.949168
3040.000000	91.973031
3038.000000	91.990518
3036.000000	92.001527
3034.000000	92.002793
3032.000000	91.989904
3030.000000	91.955070
3028.000000	91.885163
3026.000000	91.776521
3024.000000	91.647650
3022.000000	91.528636
3020.000000	91.462040
3018.000000	91.490580
3016.000000	91.632449
3014.000000	91.871189
3012.000000	92.158308
3010.000000	92.433902
3008.000000	92.657325
3006.000000	92.816852
3004.000000	92.929566
3002.000000	93.010173
3000.000000	93.065631
2998.000000	93.105285
2996.000000	93.136976
2994.000000	93.158217
2992.000000	93.167712
2990.000000	93.165633
2988.000000	93.149088
2986.000000	93.112937
2984.000000	93.053417
2982.000000	92.966525
2980.000000	92.846217
2978.000000	92.681345
2976.000000	92.454242
2974.000000	92.146482
2972.000000	91.749536
2970.000000	91.267868
2968.000000	90.742933
2966.000000	90.258183
2964.000000	89.901913
2962.000000	89.728068
2960.000000	89.740852
2958.000000	89.883860
2956.000000	90.077782
2954.000000	90.263226
2952.000000	90.405149
2950.000000	90.472976
2948.000000	90.434744
2946.000000	90.269682
2944.000000	89.974865
2942.000000	89.559985
2940.000000	89.064101
2938.000000	88.551231
2936.000000	88.078022
2934.000000	87.655447
2932.000000	87.255621
2930.000000	86.865724
2928.000000	86.535004
2926.000000	86.369186
2924.000000	86.478504
2922.000000	86.901991
2920.000000	87.580926
2918.000000	88.404003
2916.000000	89.260635
2914.000000	90.064003
2912.000000	90.754324
2910.000000	91.306065
2908.000000	91.736617
2906.000000	92.084638
2904.000000	92.385755
2902.000000	92.659755
2900.000000	92.915585
2898.000000	93.154547
2896.000000	93.380273
2894.000000	93.595539
2892.000000	93.799893
2890.000000	93.986971
2888.000000	94.148691
2886.000000	94.278041
2884.000000	94.367230
2882.000000	94.410583
2880.000000	94.409119
2878.000000	94.356290
2876.000000	94.243926
2874.000000	94.064118
2872.000000	93.806932
2870.000000	93.445166
2868.000000	92.956299
2866.000000	92.378330
2864.000000	91.835387
2862.000000	91.481027
2860.000000	91.405603
2858.000000	91.575389
2856.000000	91.879374
2854.000000	92.236855
2852.000000	92.649992
2850.000000	93.157954
2848.000000	93.763197
2846.000000	94.384515
2844.000000	94.926736
2842.000000	95.359678
2840.000000	95.699492
2838.000000	95.968573
2836.000000	96.187633
2834.000000	96.369088
2832.000000	96.524458
2830.000000	96.661908
2828.000000	96.783605
2826.000000	96.892058
2824.000000	96.992698
2822.000000	97.086397
2820.000000	97.172292
2818.000000	97.250051
2816.000000	97.320852
2814.000000	97.384731
2812.000000	97.441760
2810.000000	97.494386
2808.000000	97.545417
2806.000000	97.593849
2804.000000	97.639570
2802.000000	97.683001
2800.000000	97.725604
2798.000000	97.765942
2796.000000	97.804602
2794.000000	97.844793
2792.000000	97.892860
2790.000000	97.950236
2788.000000	98.019475
2786.000000	98.100371
2784.000000	98.183937
2782.000000	98.264729
2780.000000	98.341643
2778.000000	98.410572
2776.000000	98.472333
2774.000000	98.528795
2772.000000	98.582211
2770.000000	98.633351
2768.000000	98.683037
2766.000000	98.730110
2764.000000	98.778257
2762.000000	98.825851
2760.000000	98.870127
2758.000000	98.913934
2756.000000	98.957562
2754.000000	98.998443
2752.000000	99.037658
2750.000000	99.076683
2748.000000	99.113489
2746.000000	99.147063
2744.000000	99.182300
2742.000000	99.217132
2740.000000	99.250727
2738.000000	99.284698
2736.000000	99.319650
2734.000000	99.354424
2732.000000	99.388887
2730.000000	99.421705
2728.000000	99.453881
2726.000000	99.485118
2724.000000	99.516624
2722.000000	99.548993
2720.000000	99.580997
2718.000000	99.611948
2716.000000	99.640378
2714.000000	99.664963
2712.000000	99.689460
2710.000000	99.714318
2708.000000	99.739529
2706.000000	99.764772
2704.000000	99.795463
2702.000000	99.831886
2700.000000	99.873801
2698.000000	99.921181
2696.000000	99.967894
2694.000000	100.011860
2692.000000	100.056388
2690.000000	100.098340
2688.000000	100.139739
2686.000000	100.182157
2684.000000	100.221925
2682.000000	100.257265
2680.000000	100.289883
2678.000000	100.322817
2676.000000	100.357439
2674.000000	100.388784
2672.000000	100.417489
2670.000000	100.446662
2668.000000	100.477960
2666.000000	100.507675
2664.000000	100.534940
2662.000000	100.561442
2660.000000	100.590610
2658.000000	100.621247
2656.000000	100.654618
2654.000000	100.691327
2652.000000	100.730525
2650.000000	100.769758
2648.000000	100.810431
2646.000000	100.850405
2644.000000	100.888312
2642.000000	100.923571
2640.000000	100.959714
2638.000000	100.993873
2636.000000	101.025389
2634.000000	101.058100
2632.000000	101.091649
2630.000000	101.121866
2628.000000	101.149661
2626.000000	101.176111
2624.000000	101.203983
2622.000000	101.231945
2620.000000	101.259226
2618.000000	101.286433
2616.000000	101.313602
2614.000000	101.337877
2612.000000	101.362406
2610.000000	101.384778
2608.000000	101.403799
2606.000000	101.419569
2604.000000	101.434592
2602.000000	101.447385
2600.000000	101.457855
2598.000000	101.466294
2596.000000	101.475569
2594.000000	101.489030
2592.000000	101.513121
2590.000000	101.544384
2588.000000	101.584575
2586.000000	101.635544
2584.000000	101.694955
2582.000000	101.758079
2580.000000	101.822936
2578.000000	101.881466
2576.000000	101.931824
2574.000000	101.978127
2572.000000	102.022524
2570.000000	102.062800
2568.000000	102.099107
2566.000000	102.134324
2564.000000	102.169601
2562.000000	102.199557
2560.000000	102.228106
2558.000000	102.256504
2556.000000	102.284130
2554.000000	102.309074
2552.000000	102.333443
2550.000000	102.359209
2548.000000	102.386801
2546.000000	102.413222
2544.000000	102.438593
2542.000000	102.463911
2540.000000	102.491379
2538.000000	102.517200
2536.000000	102.543389
2534.000000	102.570140
2532.000000	102.596799
2530.000000	102.622547
2528.000000	102.647986
2526.000000	102.672321
2524.000000	102.697709
2522.000000	102.721764
2520.000000	102.745659
2518.000000	102.769469
2516.000000	102.792416
2514.000000	102.815410
2512.000000	102.838681
2510.000000	102.860159
2508.000000	102.881748
2506.000000	102.904632
2504.000000	102.925864
2502.000000	102.944561
2500.000000	102.967319
2498.000000	102.991622
2496.000000	103.017998
2494.000000	103.045664
2492.000000	103.073040
2490.000000	103.098048
2488.000000	103.124162
2486.000000	103.149996
2484.000000	103.174754
2482.000000	103.198528
2480.000000	103.223904
2478.000000	103.248550
2476.000000	103.272272
2474.000000	103.293914
2472.000000	103.314496
2470.000000	103.332495
2468.000000	103.349478
2466.000000	103.366902
2464.000000	103.385006
2462.000000	103.400014
2460.000000	103.415977
2458.000000	103.432305
2456.000000	103.449659
2454.000000	103.466132
2452.000000	103.482990
2450.000000	103.499136
2448.000000	103.515658
2446.000000	103.530499
2444.000000	103.545702
2442.000000	103.562325
2440.000000	103.578576
2438.000000	103.593245
2436.000000	103.606987
2434.000000	103.618377
2432.000000	103.632176
2430.000000	103.645369
2428.000000	103.656169
2426.000000	103.668881
2424.000000	103.684676
2422.000000	103.701048
2420.000000	103.717542
2418.000000	103.728639
2416.000000	103.741635
2414.000000	103.754405
2412.000000	103.765299
2410.000000	103.776261
2408.000000	103.789636
2406.000000	103.802863
2404.000000	103.817729
2402.000000	103.831526
2400.000000	103.846419
2398.000000	103.862572
2396.000000	103.880585
2394.000000	103.898679
2392.000000	103.917460
2390.000000	103.932116
2388.000000	103.944530
2386.000000	103.952573
2384.000000	103.950946
2382.000000	103.928708
2380.000000	103.878332
2378.000000	103.794711
2376.000000	103.677551
2374.000000	103.523464
2372.000000	103.343355
2370.000000	103.152434
2368.000000	102.970492
2366.000000	102.817255
2364.000000	102.717102
2362.000000	102.683298
2360.000000	102.726736
2358.000000	102.849507
2356.000000	103.045102
2354.000000	103.295608
2352.000000	103.572591
2350.000000	103.773390
2348.000000	103.763982
2346.000000	103.588365
2344.000000	103.399484
2342.000000	103.260708
2340.000000	103.181325
2338.000000	103.147167
2336.000000	103.147499
2334.000000	103.174728
2332.000000	103.226264
2330.000000	103.296277
2328.000000	103.381160
2326.000000	103.474226
2324.000000	103.570848
2322.000000	103.666141
2320.000000	103.759945
2318.000000	103.844347
2316.000000	103.919242
2314.000000	103.985070
2312.000000	104.042530
2310.000000	104.092295
2308.000000	104.135550
2306.000000	104.169438
2304.000000	104.198606
2302.000000	104.222372
2300.000000	104.241355
2298.000000	104.256195
2296.000000	104.271785
2294.000000	104.286721
2292.000000	104.302238
2290.000000	104.313265
2288.000000	104.321765
2286.000000	104.328233
2284.000000	104.334307
2282.000000	104.335453
2280.000000	104.333264
2278.000000	104.328002
2276.000000	104.323886
2274.000000	104.319753
2272.000000	104.316358
2270.000000	104.309712
2268.000000	104.303015
2266.000000	104.297969
2264.000000	104.294300
2262.000000	104.289567
2260.000000	104.288174
2258.000000	104.289029
2256.000000	104.290437
2254.000000	104.291618
2252.000000	104.294996
2250.000000	104.300269
2248.000000	104.306811
2246.000000	104.314389
2244.000000	104.326166
2242.000000	104.338243
2240.000000	104.351493
2238.000000	104.365600
2236.000000	104.379958
2234.000000	104.391832
2232.000000	104.405376
2230.000000	104.417356
2228.000000	104.429363
2226.000000	104.441389
2224.000000	104.453693
2222.000000	104.462996
2220.000000	104.472273
2218.000000	104.478502
2216.000000	104.485215
2214.000000	104.491330
2212.000000	104.497992
2210.000000	104.502820
2208.000000	104.506473
2206.000000	104.508203
2204.000000	104.514690
2202.000000	104.520667
2200.000000	104.525006
2198.000000	104.527921
2196.000000	104.531435
2194.000000	104.532960
2192.000000	104.536140
2190.000000	104.535467
2188.000000	104.533820
2186.000000	104.533351
2184.000000	104.533936
2182.000000	104.532075
2180.000000	104.531983
2178.000000	104.529892
2176.000000	104.528212
2174.000000	104.519842
2172.000000	104.495953
2170.000000	104.470370
2168.000000	104.481629
2166.000000	104.505457
2164.000000	104.513794
2162.000000	104.512588
2160.000000	104.511354
2158.000000	104.510870
2156.000000	104.512408
2154.000000	104.511791
2152.000000	104.508844
2150.000000	104.504649
2148.000000	104.503961
2146.000000	104.503276
2144.000000	104.504122
2142.000000	104.503325
2140.000000	104.502133
2138.000000	104.498484
2136.000000	104.497454
2134.000000	104.496238
2132.000000	104.494162
2130.000000	104.490971
2128.000000	104.491445
2126.000000	104.493016
2124.000000	104.492001
2122.000000	104.491998
2120.000000	104.495794
2118.000000	104.497976
2116.000000	104.498379
2114.000000	104.502799
2112.000000	104.515917
2110.000000	104.529639
2108.000000	104.541945
2106.000000	104.553916
2104.000000	104.565488
2102.000000	104.576521
2100.000000	104.589330
2098.000000	104.601973
2096.000000	104.616532
2094.000000	104.630614
2092.000000	104.642732
2090.000000	104.652296
2088.000000	104.667551
2086.000000	104.681906
2084.000000	104.698767
2082.000000	104.711355
2080.000000	104.726544
2078.000000	104.743487
2076.000000	104.762872
2074.000000	104.777262
2072.000000	104.796684
2070.000000	104.815585
2068.000000	104.831923
2066.000000	104.842791
2064.000000	104.865123
2062.000000	104.892597
2060.000000	104.915815
2058.000000	104.935326
2056.000000	104.954895
2054.000000	104.974033
2052.000000	104.997451
2050.000000	105.015669
2048.000000	105.036189
2046.000000	105.056991
2044.000000	105.074151
2042.000000	105.086028
2040.000000	105.104399
2038.000000	105.121516
2036.000000	105.136031
2034.000000	105.144827
2032.000000	105.141861
2030.000000	105.122376
2028.000000	105.131664
2026.000000	105.167078
2024.000000	105.190751
2022.000000	105.200855
2020.000000	105.203226
2018.000000	105.202786
2016.000000	105.223244
2014.000000	105.253621
2012.000000	105.276974
2010.000000	105.293563
2008.000000	105.307947
2006.000000	105.319360
2004.000000	105.329678
2002.000000	105.336526
2000.000000	105.341565
1998.000000	105.343907
1996.000000	105.344558
1994.000000	105.320706
1992.000000	105.299759
1990.000000	105.318200
1988.000000	105.334563
1986.000000	105.336089
1984.000000	105.332333
1982.000000	105.322565
1980.000000	105.310845
1978.000000	105.297049
1976.000000	105.282540
1974.000000	105.265884
1972.000000	105.248329
1970.000000	105.216032
1968.000000	105.171137
1966.000000	105.151499
1964.000000	105.144697
1962.000000	105.087050
1960.000000	104.963228
1958.000000	104.931202
1956.000000	105.014388
1954.000000	105.042500
1952.000000	105.022176
1950.000000	104.989891
1948.000000	104.968131
1946.000000	104.929929
1944.000000	104.862272
1942.000000	104.830094
1940.000000	104.866564
1938.000000	104.871295
1936.000000	104.850681
1934.000000	104.822033
1932.000000	104.796165
1930.000000	104.767130
1928.000000	104.737598
1926.000000	104.688207
1924.000000	104.615394
1922.000000	104.564662
1920.000000	104.487084
1918.000000	104.392706
1916.000000	104.433862
1914.000000	104.455124
1912.000000	104.401464
1910.000000	104.326064
1908.000000	104.280515
1906.000000	104.241291
1904.000000	104.194749
1902.000000	104.139879
1900.000000	104.093393
1898.000000	104.038125
1896.000000	103.979048
1894.000000	103.945260
1892.000000	103.902392
1890.000000	103.822789
1888.000000	103.836262
1886.000000	103.866461
1884.000000	103.861245
1882.000000	103.844228
1880.000000	103.826504
1878.000000	103.797493
1876.000000	103.771465
1874.000000	103.735838
1872.000000	103.635867
1870.000000	103.445725
1868.000000	103.414516
1866.000000	103.527173
1864.000000	103.578341
1862.000000	103.555474
1860.000000	103.523606
1858.000000	103.491360
1856.000000	103.464793
1854.000000	103.426477
1852.000000	103.387682
1850.000000	103.323651
1848.000000	103.213294
1846.000000	102.941870
1844.000000	102.768397
1842.000000	102.960720
1840.000000	103.081952
1838.000000	103.030766
1836.000000	102.977750
1834.000000	102.910500
1832.000000	102.729368
1830.000000	102.545329
1828.000000	102.551868
1826.000000	102.504223
1824.000000	102.483530
1822.000000	102.521575
1820.000000	102.483077
1818.000000	102.404301
1816.000000	102.340174
1814.000000	102.252852
1812.000000	102.115180
1810.000000	102.014745
1808.000000	101.972481
1806.000000	101.895625
1804.000000	101.752066
1802.000000	101.550180
1800.000000	101.425638
1798.000000	101.384232
1796.000000	101.260381
1794.000000	100.902535
1792.000000	100.681940
1790.000000	100.821086
1788.000000	100.874225
1786.000000	100.704326
1784.000000	100.572837
1782.000000	100.470449
1780.000000	100.365287
1778.000000	100.293274
1776.000000	100.082965
1774.000000	99.597102
1772.000000	99.338155
1770.000000	99.509086
1768.000000	99.590715
1766.000000	99.668650
1764.000000	99.537173
1762.000000	99.282774
1760.000000	99.252803
1758.000000	99.153102
1756.000000	99.016437
1754.000000	98.831406
1752.000000	98.375222
1750.000000	98.176989
1748.000000	98.220646
1746.000000	98.183073
1744.000000	98.028687
1742.000000	97.767150
1740.000000	97.516589
1738.000000	97.445212
1736.000000	96.919004
1734.000000	96.388253
1732.000000	96.827927
1730.000000	97.248720
1728.000000	97.330468
1726.000000	97.298698
1724.000000	97.213042
1722.000000	97.085066
1720.000000	96.586629
1718.000000	95.904078
1716.000000	95.996578
1714.000000	96.438387
1712.000000	96.626148
1710.000000	96.548203
1708.000000	96.320252
1706.000000	96.053377
1704.000000	95.894221
1702.000000	95.256449
1700.000000	94.779542
1698.000000	94.918406
1696.000000	94.844628
1694.000000	95.397903
1692.000000	95.881315
1690.000000	95.823210
1688.000000	95.539090
1686.000000	94.677438
1684.000000	94.341346
1682.000000	95.066900
1680.000000	95.466002
1678.000000	95.338786
1676.000000	94.951833
1674.000000	94.913228
1672.000000	94.906957
1670.000000	94.648036
1668.000000	94.737455
1666.000000	94.892351
1664.000000	94.671538
1662.000000	94.532894
1660.000000	94.619430
1658.000000	94.517708
1656.000000	93.778617
1654.000000	92.440262
1652.000000	92.488163
1650.000000	93.463491
1648.000000	93.348894
1646.000000	93.108662
1644.000000	93.435173
1642.000000	93.595327
1640.000000	93.400187
1638.000000	92.863625
1636.000000	92.241442
1634.000000	92.406171
1632.000000	92.721179
1630.000000	92.535596
1628.000000	92.193439
1626.000000	91.821220
1624.000000	91.293799
1622.000000	90.898383
1620.000000	90.485312
1618.000000	89.665630
1616.000000	89.202523
1614.000000	89.163035
1612.000000	88.674315
1610.000000	88.053001
1608.000000	87.734615
1606.000000	87.761391
1604.000000	87.955898
1602.000000	88.199868
1600.000000	88.433939
1598.000000	88.635529
1596.000000	88.786903
1594.000000	88.901351
1592.000000	88.964666
1590.000000	88.968634
1588.000000	88.928329
1586.000000	88.861111
1584.000000	88.786721
1582.000000	88.730316
1580.000000	88.618784
1578.000000	88.103592
1576.000000	87.728909
1574.000000	88.168325
1572.000000	88.279904
1570.000000	87.965796
1568.000000	87.936951
1566.000000	87.898111
1564.000000	87.619738
1562.000000	86.819227
1560.000000	85.592564
1558.000000	85.563377
1556.000000	86.389328
1554.000000	86.897216
1552.000000	87.316979
1550.000000	87.590852
1548.000000	87.769397
1546.000000	87.750172
1544.000000	87.576193
1542.000000	87.209772
1540.000000	87.044659
1538.000000	87.853122
1536.000000	88.649329
1534.000000	88.721745
1532.000000	88.944643
1530.000000	89.156137
1528.000000	89.054828
1526.000000	88.876441
1524.000000	88.636033
1522.000000	88.183861
1520.000000	88.206817
1518.000000	88.350929
1516.000000	88.236250
1514.000000	88.125836
1512.000000	87.934796
1510.000000	87.536569
1508.000000	86.579729
1506.000000	85.953869
1504.000000	85.939741
1502.000000	84.976368
1500.000000	82.552733
1498.000000	79.334116
1496.000000	76.823135
1494.000000	76.355136
1492.000000	77.457543
1490.000000	79.262301
1488.000000	81.185919
1486.000000	82.726665
1484.000000	83.732953
1482.000000	84.247773
1480.000000	84.485495
1478.000000	84.444164
1476.000000	84.173019
1474.000000	83.744614
1472.000000	83.550609
1470.000000	83.659436
1468.000000	83.465144
1466.000000	82.937682
1464.000000	82.549532
1462.000000	82.231509
1460.000000	81.361979
1458.000000	79.903268
1456.000000	78.867170
1454.000000	78.364633
1452.000000	77.837198
1450.000000	77.921871
1448.000000	78.768332
1446.000000	79.726214
1444.000000	80.199521
1442.000000	80.311739
1440.000000	80.240607
1438.000000	79.951224
1436.000000	79.936900
1434.000000	80.299575
1432.000000	80.373325
1430.000000	80.313063
1428.000000	80.330823
1426.000000	80.329157
1424.000000	80.236574
1422.000000	80.034257
1420.000000	79.602078
1418.000000	79.512580
1416.000000	79.609874
1414.000000	79.466852
1412.000000	79.114382
1410.000000	78.581845
1408.000000	77.827540
1406.000000	77.014855
1404.000000	76.546660
1402.000000	76.560830
1400.000000	76.812027
1398.000000	77.252311
1396.000000	77.638687
1394.000000	77.954198
1392.000000	78.251907
1390.000000	78.257110
1388.000000	77.963744
1386.000000	77.673864
1384.000000	77.559265
1382.000000	77.662146
1380.000000	77.762351
1378.000000	77.709311
1376.000000	77.561978
1374.000000	77.435556
1372.000000	77.387865
1370.000000	77.286309
1368.000000	77.133324
1366.000000	76.977198
1364.000000	76.759208
1362.000000	76.577749
1360.000000	76.471096
1358.000000	76.332876
1356.000000	76.135592
1354.000000	75.928353
1352.000000	75.721525
1350.000000	75.506532
1348.000000	75.287020
1346.000000	75.059238
1344.000000	74.813677
1342.000000	74.544779
1340.000000	74.297630
1338.000000	74.159067
1336.000000	74.079680
1334.000000	73.977894
1332.000000	73.823792
1330.000000	73.631158
1328.000000	73.408873
1326.000000	73.166385
1324.000000	72.902724
1322.000000	72.622583
1320.000000	72.320711
1318.000000	72.021141
1316.000000	71.724128
1314.000000	71.413893
1312.000000	71.098407
1310.000000	70.783887
1308.000000	70.457307
1306.000000	70.124163
1304.000000	69.780789
1302.000000	69.437787
1300.000000	69.094137
1298.000000	68.749327
1296.000000	68.396027
1294.000000	68.030579
1292.000000	67.646812
1290.000000	67.252837
1288.000000	66.853318
1286.000000	66.451236
1284.000000	66.038764
1282.000000	65.608912
1280.000000	65.151872
1278.000000	64.663706
1276.000000	64.122758
1274.000000	63.508277
1272.000000	62.783025
1270.000000	61.897092
1268.000000	60.792291
1266.000000	59.476518
1264.000000	58.105411
1262.000000	57.006306
1260.000000	56.459185
1258.000000	56.464468
1256.000000	56.750691
1254.000000	56.992741
1252.000000	56.989133
1250.000000	56.745225
1248.000000	56.350677
1246.000000	55.880245
1244.000000	55.372557
1242.000000	54.859317
1240.000000	54.353106
1238.000000	53.860894
1236.000000	53.382720
1234.000000	52.920761
1232.000000	52.467332
1230.000000	52.021967
1228.000000	51.575385
1226.000000	51.125526
1224.000000	50.666791
1222.000000	50.196595
1220.000000	49.702453
1218.000000	49.190332
1216.000000	48.671266
1214.000000	48.159984
1212.000000	47.669556
1210.000000	47.218032
1208.000000	46.799911
1206.000000	46.401555
1204.000000	46.005105
1202.000000	45.609257
1200.000000	45.217321
1198.000000	44.829577
1196.000000	44.438138
1194.000000	44.034059
1192.000000	43.613771
1190.000000	43.185306
1188.000000	42.744751
1186.000000	42.273118
1184.000000	41.688474
1182.000000	40.962303
1180.000000	40.396292
1178.000000	40.149558
1176.000000	39.919451
1174.000000	39.563264
1172.000000	39.137240
1170.000000	38.689368
1168.000000	38.225477
1166.000000	37.750434
1164.000000	37.277385
1162.000000	36.818431
1160.000000	36.365367
1158.000000	35.930348
1156.000000	35.508454
1154.000000	35.088800
1152.000000	34.662704
1150.000000	34.238090
1148.000000	33.805993
1146.000000	33.367664
1144.000000	32.937560
1142.000000	32.558445
1140.000000	32.248424
1138.000000	31.937716
1136.000000	31.579610
1134.000000	31.187940
1132.000000	30.773465
1130.000000	30.347367
1128.000000	29.922343
1126.000000	29.501041
1124.000000	29.070872
1122.000000	28.634537
1120.000000	28.187948
1118.000000	27.729536
1116.000000	27.262316
1114.000000	26.794546
1112.000000	26.326013
1110.000000	25.860875
1108.000000	25.406434
1106.000000	24.973443
1104.000000	24.556805
1102.000000	24.147132
1100.000000	23.734717
1098.000000	23.327087
1096.000000	22.929582
1094.000000	22.546753
1092.000000	22.179640
1090.000000	21.826855
1088.000000	21.484030
1086.000000	21.147884
1084.000000	20.801341
1082.000000	20.444922
1080.000000	20.105677
1078.000000	19.799961
1076.000000	19.523685
1074.000000	19.292188
1072.000000	19.076264
1070.000000	18.851912
1068.000000	18.622537
1066.000000	18.392748
1064.000000	18.159896
1062.000000	17.921479
1060.000000	17.672686
1058.000000	17.387918
1056.000000	17.001566
1054.000000	16.491935
1052.000000	15.984056
1050.000000	15.683920
1048.000000	15.651229
1046.000000	15.732291
1044.000000	15.732639
1042.000000	15.615516
1040.000000	15.430577
1038.000000	15.217284
1036.000000	14.987399
1034.000000	14.750174
1032.000000	14.502435
1030.000000	14.247112
1028.000000	13.983706
1026.000000	13.713891
1024.000000	13.442244
1022.000000	13.176221
1020.000000	12.921730
1018.000000	12.685207
1016.000000	12.469175
1014.000000	12.284119
1012.000000	12.116215
1010.000000	11.952868
1008.000000	11.785573
1006.000000	11.607086
1004.000000	11.410736
1002.000000	11.198674
1000.000000	10.971434
