PE IR       SUBTECH     SPECTRUM    ASCII       PEDS        4.00        
   -1
TE109A_031_80K_after_100K_BG.ASC
20/04/21
13:55:06.00
20/04/21
13:55:06.00
Administrator
TE109A, Tuesday, April 21 2020, 031.
1000.000000
#HDR
-1
-1
#GR
cm-1
EGY
1.0
0.0
6000.000000
-2.000000
2501
8
105.553306
10.983635
#DATA
6000.000000	16.751468
5998.000000	16.783547
5996.000000	16.816977
5994.000000	16.851503
5992.000000	16.885275
5990.000000	16.918443
5988.000000	16.951077
5986.000000	16.984305
5984.000000	17.016892
5982.000000	17.049564
5980.000000	17.081300
5978.000000	17.113910
5976.000000	17.147645
5974.000000	17.182644
5972.000000	17.217407
5970.000000	17.252268
5968.000000	17.286484
5966.000000	17.320557
5964.000000	17.355516
5962.000000	17.390935
5960.000000	17.424521
5958.000000	17.457205
5956.000000	17.491085
5954.000000	17.526364
5952.000000	17.561637
5950.000000	17.596793
5948.000000	17.630664
5946.000000	17.665183
5944.000000	17.698469
5942.000000	17.731426
5940.000000	17.764201
5938.000000	17.796885
5936.000000	17.829922
5934.000000	17.864284
5932.000000	17.898881
5930.000000	17.933152
5928.000000	17.967856
5926.000000	18.003094
5924.000000	18.038823
5922.000000	18.075077
5920.000000	18.111061
5918.000000	18.147246
5916.000000	18.181996
5914.000000	18.217147
5912.000000	18.253684
5910.000000	18.292052
5908.000000	18.330219
5906.000000	18.367033
5904.000000	18.403508
5902.000000	18.440423
5900.000000	18.476074
5898.000000	18.511968
5896.000000	18.547781
5894.000000	18.585331
5892.000000	18.623731
5890.000000	18.660873
5888.000000	18.696764
5886.000000	18.731426
5884.000000	18.765985
5882.000000	18.802437
5880.000000	18.838412
5878.000000	18.874188
5876.000000	18.909151
5874.000000	18.944719
5872.000000	18.981716
5870.000000	19.019332
5868.000000	19.057172
5866.000000	19.095018
5864.000000	19.131236
5862.000000	19.168595
5860.000000	19.206852
5858.000000	19.246390
5856.000000	19.283796
5854.000000	19.321363
5852.000000	19.360078
5850.000000	19.400625
5848.000000	19.440026
5846.000000	19.479436
5844.000000	19.519391
5842.000000	19.560453
5840.000000	19.601902
5838.000000	19.643542
5836.000000	19.684162
5834.000000	19.724949
5832.000000	19.766747
5830.000000	19.809909
5828.000000	19.852178
5826.000000	19.893686
5824.000000	19.935275
5822.000000	19.977295
5820.000000	20.017880
5818.000000	20.057767
5816.000000	20.097650
5814.000000	20.138426
5812.000000	20.180543
5810.000000	20.221903
5808.000000	20.261774
5806.000000	20.300921
5804.000000	20.341295
5802.000000	20.384484
5800.000000	20.426234
5798.000000	20.468043
5796.000000	20.507973
5794.000000	20.547803
5792.000000	20.587229
5790.000000	20.627238
5788.000000	20.669290
5786.000000	20.711394
5784.000000	20.753220
5782.000000	20.794549
5780.000000	20.835333
5778.000000	20.876801
5776.000000	20.918673
5774.000000	20.961964
5772.000000	21.004559
5770.000000	21.048029
5768.000000	21.090578
5766.000000	21.133489
5764.000000	21.175395
5762.000000	21.216629
5760.000000	21.258131
5758.000000	21.300283
5756.000000	21.342596
5754.000000	21.385915
5752.000000	21.428091
5750.000000	21.469692
5748.000000	21.509628
5746.000000	21.550147
5744.000000	21.590546
5742.000000	21.631203
5740.000000	21.673059
5738.000000	21.715809
5736.000000	21.756850
5734.000000	21.797106
5732.000000	21.836789
5730.000000	21.878758
5728.000000	21.920453
5726.000000	21.961040
5724.000000	22.002518
5722.000000	22.044079
5720.000000	22.085836
5718.000000	22.127847
5716.000000	22.169911
5714.000000	22.214082
5712.000000	22.259337
5710.000000	22.304436
5708.000000	22.348089
5706.000000	22.391936
5704.000000	22.436291
5702.000000	22.481454
5700.000000	22.525441
5698.000000	22.570623
5696.000000	22.615285
5694.000000	22.659930
5692.000000	22.704454
5690.000000	22.748287
5688.000000	22.791255
5686.000000	22.836159
5684.000000	22.884666
5682.000000	22.934265
5680.000000	22.980635
5678.000000	23.024493
5676.000000	23.068302
5674.000000	23.113468
5672.000000	23.159674
5670.000000	23.207497
5668.000000	23.254191
5666.000000	23.298679
5664.000000	23.341579
5662.000000	23.386612
5660.000000	23.432717
5658.000000	23.479878
5656.000000	23.525746
5654.000000	23.570568
5652.000000	23.615713
5650.000000	23.661375
5648.000000	23.706973
5646.000000	23.753328
5644.000000	23.799586
5642.000000	23.846404
5640.000000	23.892494
5638.000000	23.938315
5636.000000	23.983197
5634.000000	24.028243
5632.000000	24.073210
5630.000000	24.120092
5628.000000	24.166560
5626.000000	24.213282
5624.000000	24.259247
5622.000000	24.304365
5620.000000	24.347696
5618.000000	24.391930
5616.000000	24.438508
5614.000000	24.485833
5612.000000	24.531042
5610.000000	24.576011
5608.000000	24.622649
5606.000000	24.670072
5604.000000	24.716407
5602.000000	24.761937
5600.000000	24.807124
5598.000000	24.853035
5596.000000	24.899395
5594.000000	24.946761
5592.000000	24.994216
5590.000000	25.040546
5588.000000	25.086106
5586.000000	25.132592
5584.000000	25.179513
5582.000000	25.227674
5580.000000	25.275739
5578.000000	25.322993
5576.000000	25.370796
5574.000000	25.418428
5572.000000	25.466256
5570.000000	25.514175
5568.000000	25.562269
5566.000000	25.611860
5564.000000	25.660654
5562.000000	25.707016
5560.000000	25.753059
5558.000000	25.801505
5556.000000	25.848921
5554.000000	25.895695
5552.000000	25.942138
5550.000000	25.990926
5548.000000	26.039560
5546.000000	26.087783
5544.000000	26.136496
5542.000000	26.184949
5540.000000	26.232154
5538.000000	26.280278
5536.000000	26.327703
5534.000000	26.375035
5532.000000	26.422089
5530.000000	26.470415
5528.000000	26.517919
5526.000000	26.564029
5524.000000	26.610465
5522.000000	26.657538
5520.000000	26.702969
5518.000000	26.749491
5516.000000	26.797337
5514.000000	26.847541
5512.000000	26.896120
5510.000000	26.943371
5508.000000	26.990442
5506.000000	27.037739
5504.000000	27.086892
5502.000000	27.136661
5500.000000	27.186358
5498.000000	27.232666
5496.000000	27.275978
5494.000000	27.319934
5492.000000	27.365960
5490.000000	27.415838
5488.000000	27.467988
5486.000000	27.522887
5484.000000	27.577720
5482.000000	27.630839
5480.000000	27.676779
5478.000000	27.716553
5476.000000	27.757919
5474.000000	27.809262
5472.000000	27.865940
5470.000000	27.918177
5468.000000	27.966056
5466.000000	28.013105
5464.000000	28.058628
5462.000000	28.104722
5460.000000	28.153965
5458.000000	28.207923
5456.000000	28.263348
5454.000000	28.315599
5452.000000	28.362162
5450.000000	28.402150
5448.000000	28.441400
5446.000000	28.486034
5444.000000	28.534179
5442.000000	28.588121
5440.000000	28.642509
5438.000000	28.691586
5436.000000	28.738047
5434.000000	28.784950
5432.000000	28.830834
5430.000000	28.877434
5428.000000	28.931901
5426.000000	28.996605
5424.000000	29.058245
5422.000000	29.111258
5420.000000	29.158886
5418.000000	29.197823
5416.000000	29.229113
5414.000000	29.263700
5412.000000	29.311585
5410.000000	29.373367
5408.000000	29.437096
5406.000000	29.496635
5404.000000	29.551038
5402.000000	29.602169
5400.000000	29.648976
5398.000000	29.688653
5396.000000	29.725777
5394.000000	29.773884
5392.000000	29.832371
5390.000000	29.891115
5388.000000	29.939453
5386.000000	29.986672
5384.000000	30.041303
5382.000000	30.098029
5380.000000	30.142605
5378.000000	30.180900
5376.000000	30.229042
5374.000000	30.292279
5372.000000	30.356706
5370.000000	30.413541
5368.000000	30.465726
5366.000000	30.516258
5364.000000	30.565271
5362.000000	30.615804
5360.000000	30.666887
5358.000000	30.712161
5356.000000	30.748453
5354.000000	30.788865
5352.000000	30.840306
5350.000000	30.894902
5348.000000	30.936633
5346.000000	30.975712
5344.000000	31.025331
5342.000000	31.079252
5340.000000	31.129059
5338.000000	31.182347
5336.000000	31.244927
5334.000000	31.307950
5332.000000	31.360081
5330.000000	31.406941
5328.000000	31.456727
5326.000000	31.513205
5324.000000	31.573761
5322.000000	31.631379
5320.000000	31.683693
5318.000000	31.733124
5316.000000	31.781692
5314.000000	31.832822
5312.000000	31.882303
5310.000000	31.927878
5308.000000	31.973215
5306.000000	32.024559
5304.000000	32.079322
5302.000000	32.133443
5300.000000	32.186818
5298.000000	32.241635
5296.000000	32.294262
5294.000000	32.340858
5292.000000	32.385432
5290.000000	32.435117
5288.000000	32.489754
5286.000000	32.546854
5284.000000	32.600882
5282.000000	32.654016
5280.000000	32.707415
5278.000000	32.763088
5276.000000	32.819259
5274.000000	32.872223
5272.000000	32.921405
5270.000000	32.969033
5268.000000	33.010590
5266.000000	33.048992
5264.000000	33.093617
5262.000000	33.153412
5260.000000	33.217560
5258.000000	33.270982
5256.000000	33.319398
5254.000000	33.372395
5252.000000	33.424207
5250.000000	33.468099
5248.000000	33.511289
5246.000000	33.564613
5244.000000	33.627215
5242.000000	33.691357
5240.000000	33.752738
5238.000000	33.809544
5236.000000	33.859826
5234.000000	33.906537
5232.000000	33.954419
5230.000000	34.003196
5228.000000	34.047760
5226.000000	34.094557
5224.000000	34.151176
5222.000000	34.212821
5220.000000	34.269761
5218.000000	34.324038
5216.000000	34.379984
5214.000000	34.434847
5212.000000	34.480545
5210.000000	34.516054
5208.000000	34.554143
5206.000000	34.609754
5204.000000	34.679551
5202.000000	34.747597
5200.000000	34.802042
5198.000000	34.851090
5196.000000	34.903900
5194.000000	34.961860
5192.000000	35.017361
5190.000000	35.069787
5188.000000	35.121210
5186.000000	35.173766
5184.000000	35.228103
5182.000000	35.285783
5180.000000	35.344037
5178.000000	35.400531
5176.000000	35.454910
5174.000000	35.510076
5172.000000	35.565668
5170.000000	35.621682
5168.000000	35.675348
5166.000000	35.727683
5164.000000	35.779801
5162.000000	35.834916
5160.000000	35.891213
5158.000000	35.946461
5156.000000	36.000115
5154.000000	36.054934
5152.000000	36.110678
5150.000000	36.167636
5148.000000	36.223790
5146.000000	36.278447
5144.000000	36.330885
5142.000000	36.383836
5140.000000	36.438205
5138.000000	36.493456
5136.000000	36.547277
5134.000000	36.600517
5132.000000	36.654639
5130.000000	36.710567
5128.000000	36.766032
5126.000000	36.820403
5124.000000	36.873745
5122.000000	36.927400
5120.000000	36.981043
5118.000000	37.035838
5116.000000	37.090551
5114.000000	37.145547
5112.000000	37.200012
5110.000000	37.254956
5108.000000	37.309715
5106.000000	37.364668
5104.000000	37.420451
5102.000000	37.477759
5100.000000	37.533951
5098.000000	37.588947
5096.000000	37.644260
5094.000000	37.702591
5092.000000	37.759995
5090.000000	37.816255
5088.000000	37.872343
5086.000000	37.929656
5084.000000	37.986917
5082.000000	38.043839
5080.000000	38.100763
5078.000000	38.158689
5076.000000	38.215902
5074.000000	38.273190
5072.000000	38.328225
5070.000000	38.384253
5068.000000	38.440203
5066.000000	38.496198
5064.000000	38.551394
5062.000000	38.608433
5060.000000	38.665753
5058.000000	38.722525
5056.000000	38.779569
5054.000000	38.837538
5052.000000	38.893489
5050.000000	38.949347
5048.000000	39.006313
5046.000000	39.062705
5044.000000	39.117474
5042.000000	39.172553
5040.000000	39.228442
5038.000000	39.285407
5036.000000	39.342082
5034.000000	39.398295
5032.000000	39.453369
5030.000000	39.509888
5028.000000	39.567336
5026.000000	39.624731
5024.000000	39.681437
5022.000000	39.737747
5020.000000	39.793436
5018.000000	39.848801
5016.000000	39.904213
5014.000000	39.961998
5012.000000	40.020055
5010.000000	40.076535
5008.000000	40.130886
5006.000000	40.187351
5004.000000	40.245364
5002.000000	40.305001
5000.000000	40.364887
4998.000000	40.424087
4996.000000	40.480958
4994.000000	40.537649
4992.000000	40.594771
4990.000000	40.653915
4988.000000	40.713799
4986.000000	40.773275
4984.000000	40.830903
4982.000000	40.888110
4980.000000	40.945159
4978.000000	41.003220
4976.000000	41.062049
4974.000000	41.121519
4972.000000	41.180471
4970.000000	41.239610
4968.000000	41.298480
4966.000000	41.356629
4964.000000	41.412926
4962.000000	41.469613
4960.000000	41.526279
4958.000000	41.582634
4956.000000	41.638603
4954.000000	41.697973
4952.000000	41.756712
4950.000000	41.814101
4948.000000	41.870307
4946.000000	41.927411
4944.000000	41.982623
4942.000000	42.038657
4940.000000	42.097145
4938.000000	42.156785
4936.000000	42.214212
4934.000000	42.271485
4932.000000	42.329610
4930.000000	42.387096
4928.000000	42.441685
4926.000000	42.496730
4924.000000	42.553820
4922.000000	42.611417
4920.000000	42.668252
4918.000000	42.727088
4916.000000	42.785511
4914.000000	42.843231
4912.000000	42.900236
4910.000000	42.958583
4908.000000	43.016611
4906.000000	43.076674
4904.000000	43.137288
4902.000000	43.197341
4900.000000	43.255292
4898.000000	43.313446
4896.000000	43.372737
4894.000000	43.433411
4892.000000	43.492957
4890.000000	43.551409
4888.000000	43.610467
4886.000000	43.670238
4884.000000	43.729237
4882.000000	43.788231
4880.000000	43.848694
4878.000000	43.909220
4876.000000	43.968333
4874.000000	44.027157
4872.000000	44.085088
4870.000000	44.142893
4868.000000	44.200973
4866.000000	44.260435
4864.000000	44.318976
4862.000000	44.377004
4860.000000	44.434875
4858.000000	44.494876
4856.000000	44.554865
4854.000000	44.613238
4852.000000	44.669976
4850.000000	44.728300
4848.000000	44.786075
4846.000000	44.842393
4844.000000	44.898260
4842.000000	44.956825
4840.000000	45.015288
4838.000000	45.072478
4836.000000	45.129961
4834.000000	45.189342
4832.000000	45.247666
4830.000000	45.304465
4828.000000	45.361828
4826.000000	45.421800
4824.000000	45.480666
4822.000000	45.537783
4820.000000	45.595568
4818.000000	45.656582
4816.000000	45.716201
4814.000000	45.774011
4812.000000	45.832803
4810.000000	45.893841
4808.000000	45.953240
4806.000000	46.011613
4804.000000	46.070993
4802.000000	46.132335
4800.000000	46.192926
4798.000000	46.253475
4796.000000	46.313833
4794.000000	46.375737
4792.000000	46.436998
4790.000000	46.497224
4788.000000	46.556352
4786.000000	46.617346
4784.000000	46.679712
4782.000000	46.741773
4780.000000	46.800989
4778.000000	46.859190
4776.000000	46.918133
4774.000000	46.979237
4772.000000	47.039921
4770.000000	47.100251
4768.000000	47.159600
4766.000000	47.219833
4764.000000	47.278599
4762.000000	47.337299
4760.000000	47.396097
4758.000000	47.456044
4756.000000	47.514855
4754.000000	47.573294
4752.000000	47.631062
4750.000000	47.690017
4748.000000	47.748284
4746.000000	47.805746
4744.000000	47.862924
4742.000000	47.922220
4740.000000	47.981899
4738.000000	48.041347
4736.000000	48.098818
4734.000000	48.155905
4732.000000	48.214240
4730.000000	48.273971
4728.000000	48.332827
4726.000000	48.391918
4724.000000	48.451892
4722.000000	48.512463
4720.000000	48.572186
4718.000000	48.633672
4716.000000	48.696331
4714.000000	48.758623
4712.000000	48.820487
4710.000000	48.883327
4708.000000	48.944319
4706.000000	49.005134
4704.000000	49.067900
4702.000000	49.131620
4700.000000	49.194944
4698.000000	49.258642
4696.000000	49.321176
4694.000000	49.383427
4692.000000	49.444795
4690.000000	49.505952
4688.000000	49.567344
4686.000000	49.628655
4684.000000	49.688329
4682.000000	49.750682
4680.000000	49.815221
4678.000000	49.878301
4676.000000	49.938128
4674.000000	49.998874
4672.000000	50.060934
4670.000000	50.124287
4668.000000	50.187193
4666.000000	50.248472
4664.000000	50.306649
4662.000000	50.365871
4660.000000	50.427701
4658.000000	50.490562
4656.000000	50.550929
4654.000000	50.611121
4652.000000	50.672868
4650.000000	50.735857
4648.000000	50.796854
4646.000000	50.858213
4644.000000	50.920158
4642.000000	50.981767
4640.000000	51.042128
4638.000000	51.103389
4636.000000	51.165191
4634.000000	51.226810
4632.000000	51.287951
4630.000000	51.349750
4628.000000	51.410705
4626.000000	51.470877
4624.000000	51.531305
4622.000000	51.593682
4620.000000	51.655564
4618.000000	51.717534
4616.000000	51.779890
4614.000000	51.844679
4612.000000	51.910035
4610.000000	51.975137
4608.000000	52.038370
4606.000000	52.102913
4604.000000	52.169184
4602.000000	52.235779
4600.000000	52.300157
4598.000000	52.364868
4596.000000	52.429107
4594.000000	52.494775
4592.000000	52.560958
4590.000000	52.626360
4588.000000	52.689321
4586.000000	52.753723
4584.000000	52.819146
4582.000000	52.884970
4580.000000	52.948936
4578.000000	53.012914
4576.000000	53.077578
4574.000000	53.143282
4572.000000	53.207547
4570.000000	53.271243
4568.000000	53.334040
4566.000000	53.396887
4564.000000	53.459859
4562.000000	53.523828
4560.000000	53.586132
4558.000000	53.649143
4556.000000	53.712852
4554.000000	53.775511
4552.000000	53.837715
4550.000000	53.901980
4548.000000	53.964270
4546.000000	54.025373
4544.000000	54.086784
4542.000000	54.149655
4540.000000	54.213341
4538.000000	54.277259
4536.000000	54.338954
4534.000000	54.401221
4532.000000	54.464917
4530.000000	54.528795
4528.000000	54.591511
4526.000000	54.656134
4524.000000	54.721327
4522.000000	54.785119
4520.000000	54.847151
4518.000000	54.910353
4516.000000	54.975213
4514.000000	55.042904
4512.000000	55.109826
4510.000000	55.174805
4508.000000	55.240404
4506.000000	55.307477
4504.000000	55.371561
4502.000000	55.434693
4500.000000	55.499443
4498.000000	55.565955
4496.000000	55.632153
4494.000000	55.698947
4492.000000	55.765349
4490.000000	55.831896
4488.000000	55.897953
4486.000000	55.963457
4484.000000	56.026211
4482.000000	56.089255
4480.000000	56.153504
4478.000000	56.218881
4476.000000	56.283204
4474.000000	56.347240
4472.000000	56.410505
4470.000000	56.475100
4468.000000	56.539312
4466.000000	56.602475
4464.000000	56.663547
4462.000000	56.724673
4460.000000	56.786152
4458.000000	56.848664
4456.000000	56.911099
4454.000000	56.975720
4452.000000	57.040098
4450.000000	57.102817
4448.000000	57.163456
4446.000000	57.223881
4444.000000	57.286006
4442.000000	57.350439
4440.000000	57.412966
4438.000000	57.474601
4436.000000	57.536195
4434.000000	57.598421
4432.000000	57.661795
4430.000000	57.726685
4428.000000	57.791302
4426.000000	57.856792
4424.000000	57.921302
4422.000000	57.984839
4420.000000	58.047760
4418.000000	58.111379
4416.000000	58.174675
4414.000000	58.239009
4412.000000	58.303410
4410.000000	58.368154
4408.000000	58.432360
4406.000000	58.496241
4404.000000	58.560146
4402.000000	58.626271
4400.000000	58.691665
4398.000000	58.755537
4396.000000	58.818998
4394.000000	58.884064
4392.000000	58.948085
4390.000000	59.011534
4388.000000	59.074135
4386.000000	59.136098
4384.000000	59.195742
4382.000000	59.255552
4380.000000	59.315392
4378.000000	59.375381
4376.000000	59.435678
4374.000000	59.498109
4372.000000	59.560054
4370.000000	59.621209
4368.000000	59.681364
4366.000000	59.741712
4364.000000	59.802400
4362.000000	59.864485
4360.000000	59.925804
4358.000000	59.987022
4356.000000	60.048760
4354.000000	60.111500
4352.000000	60.173796
4350.000000	60.237535
4348.000000	60.301290
4346.000000	60.364680
4344.000000	60.427696
4342.000000	60.491720
4340.000000	60.555032
4338.000000	60.619044
4336.000000	60.682941
4334.000000	60.745940
4332.000000	60.809008
4330.000000	60.874783
4328.000000	60.940098
4326.000000	61.005274
4324.000000	61.070536
4322.000000	61.137058
4320.000000	61.205704
4318.000000	61.274791
4316.000000	61.341026
4314.000000	61.408301
4312.000000	61.476140
4310.000000	61.543643
4308.000000	61.612256
4306.000000	61.682851
4304.000000	61.750772
4302.000000	61.815227
4300.000000	61.877969
4298.000000	61.942346
4296.000000	62.007257
4294.000000	62.072664
4292.000000	62.137387
4290.000000	62.202653
4288.000000	62.266768
4286.000000	62.328086
4284.000000	62.387922
4282.000000	62.449536
4280.000000	62.510828
4278.000000	62.572017
4276.000000	62.632334
4274.000000	62.691054
4272.000000	62.747693
4270.000000	62.805478
4268.000000	62.865089
4266.000000	62.926163
4264.000000	62.987805
4262.000000	63.051049
4260.000000	63.113076
4258.000000	63.174659
4256.000000	63.237564
4254.000000	63.301054
4252.000000	63.363775
4250.000000	63.429495
4248.000000	63.495090
4246.000000	63.558037
4244.000000	63.619814
4242.000000	63.682390
4240.000000	63.745937
4238.000000	63.812600
4236.000000	63.879361
4234.000000	63.944979
4232.000000	64.009748
4230.000000	64.074439
4228.000000	64.137664
4226.000000	64.202013
4224.000000	64.266530
4222.000000	64.330087
4220.000000	64.393690
4218.000000	64.460022
4216.000000	64.526614
4214.000000	64.592593
4212.000000	64.657464
4210.000000	64.722680
4208.000000	64.787118
4206.000000	64.852348
4204.000000	64.920497
4202.000000	64.992108
4200.000000	65.062278
4198.000000	65.128734
4196.000000	65.193891
4194.000000	65.261790
4192.000000	65.330481
4190.000000	65.398605
4188.000000	65.465438
4186.000000	65.532979
4184.000000	65.600864
4182.000000	65.668132
4180.000000	65.735051
4178.000000	65.802318
4176.000000	65.866383
4174.000000	65.930140
4172.000000	65.994685
4170.000000	66.058842
4168.000000	66.122724
4166.000000	66.187849
4164.000000	66.251362
4162.000000	66.314848
4160.000000	66.380085
4158.000000	66.446265
4156.000000	66.510563
4154.000000	66.575051
4152.000000	66.640184
4150.000000	66.705553
4148.000000	66.769664
4146.000000	66.834808
4144.000000	66.901447
4142.000000	66.967935
4140.000000	67.032095
4138.000000	67.095485
4136.000000	67.159966
4134.000000	67.227894
4132.000000	67.296383
4130.000000	67.362911
4128.000000	67.427217
4126.000000	67.492775
4124.000000	67.560289
4122.000000	67.627934
4120.000000	67.693188
4118.000000	67.758863
4116.000000	67.825240
4114.000000	67.891772
4112.000000	67.957267
4110.000000	68.021882
4108.000000	68.084654
4106.000000	68.148446
4104.000000	68.214037
4102.000000	68.280693
4100.000000	68.345974
4098.000000	68.409792
4096.000000	68.472736
4094.000000	68.537006
4092.000000	68.600996
4090.000000	68.666574
4088.000000	68.735782
4086.000000	68.807402
4084.000000	68.877568
4082.000000	68.945436
4080.000000	69.012420
4078.000000	69.081759
4076.000000	69.150099
4074.000000	69.215606
4072.000000	69.280381
4070.000000	69.345273
4068.000000	69.408151
4066.000000	69.471803
4064.000000	69.537843
4062.000000	69.605258
4060.000000	69.671187
4058.000000	69.735511
4056.000000	69.799846
4054.000000	69.865495
4052.000000	69.930079
4050.000000	69.994037
4048.000000	70.054940
4046.000000	70.114358
4044.000000	70.179585
4042.000000	70.250614
4040.000000	70.320112
4038.000000	70.387704
4036.000000	70.454379
4034.000000	70.520788
4032.000000	70.586964
4030.000000	70.655027
4028.000000	70.722534
4026.000000	70.789499
4024.000000	70.857787
4022.000000	70.924882
4020.000000	70.990743
4018.000000	71.060033
4016.000000	71.129909
4014.000000	71.198627
4012.000000	71.264952
4010.000000	71.330904
4008.000000	71.400973
4006.000000	71.474143
4004.000000	71.545262
4002.000000	71.614858
4000.000000	71.681590
3998.000000	71.744512
3996.000000	71.805856
3994.000000	71.869163
3992.000000	71.933272
3990.000000	72.001016
3988.000000	72.070776
3986.000000	72.135557
3984.000000	72.195735
3982.000000	72.257938
3980.000000	72.320587
3978.000000	72.379569
3976.000000	72.436598
3974.000000	72.497720
3972.000000	72.562072
3970.000000	72.627894
3968.000000	72.694865
3966.000000	72.758405
3964.000000	72.810823
3962.000000	72.863480
3960.000000	72.927014
3958.000000	72.993999
3956.000000	73.055510
3954.000000	73.108194
3952.000000	73.146152
3950.000000	73.182315
3948.000000	73.242375
3946.000000	73.308255
3944.000000	73.356648
3942.000000	73.428646
3940.000000	73.531153
3938.000000	73.618272
3936.000000	73.657856
3934.000000	73.661203
3932.000000	73.698532
3930.000000	73.798103
3928.000000	73.886611
3926.000000	73.935564
3924.000000	73.992109
3922.000000	74.047501
3920.000000	74.063693
3918.000000	74.097717
3916.000000	74.221024
3914.000000	74.381718
3912.000000	74.495003
3910.000000	74.548555
3908.000000	74.503719
3906.000000	74.340597
3904.000000	74.203126
3902.000000	74.226237
3900.000000	74.405410
3898.000000	74.678450
3896.000000	74.881350
3894.000000	74.871883
3892.000000	74.812560
3890.000000	74.881533
3888.000000	74.888617
3886.000000	74.848097
3884.000000	74.968240
3882.000000	75.105224
3880.000000	75.224475
3878.000000	75.377130
3876.000000	75.421624
3874.000000	75.335608
3872.000000	75.157522
3870.000000	75.103481
3868.000000	75.284192
3866.000000	75.431963
3864.000000	75.539314
3862.000000	75.737196
3860.000000	75.902696
3858.000000	75.709018
3856.000000	74.975192
3854.000000	74.463644
3852.000000	74.940492
3850.000000	75.829692
3848.000000	76.324849
3846.000000	76.403546
3844.000000	76.332175
3842.000000	76.183335
3840.000000	75.890976
3838.000000	75.752834
3836.000000	76.036105
3834.000000	76.411229
3832.000000	76.640926
3830.000000	76.814407
3828.000000	76.930312
3826.000000	76.959280
3824.000000	76.806222
3822.000000	76.607300
3820.000000	76.624150
3818.000000	76.622384
3816.000000	76.685366
3814.000000	77.110353
3812.000000	77.489076
3810.000000	77.448922
3808.000000	77.235903
3806.000000	77.225343
3804.000000	77.171890
3802.000000	77.033458
3800.000000	77.264904
3798.000000	77.649777
3796.000000	77.887297
3794.000000	78.076535
3792.000000	78.212312
3790.000000	78.282624
3788.000000	78.317692
3786.000000	78.341434
3784.000000	78.378081
3782.000000	78.383484
3780.000000	78.382941
3778.000000	78.491389
3776.000000	78.643204
3774.000000	78.689119
3772.000000	78.597643
3770.000000	78.537043
3768.000000	78.616346
3766.000000	78.746706
3764.000000	78.866694
3762.000000	78.890095
3760.000000	78.851798
3758.000000	78.895754
3756.000000	78.837453
3754.000000	78.407275
3752.000000	77.933660
3750.000000	77.955950
3748.000000	78.163590
3746.000000	78.014747
3744.000000	78.149416
3742.000000	78.859232
3740.000000	79.245684
3738.000000	79.075388
3736.000000	78.904523
3734.000000	78.997967
3732.000000	79.289334
3730.000000	79.635325
3728.000000	79.799678
3726.000000	79.834039
3724.000000	79.901961
3722.000000	80.008334
3720.000000	80.141274
3718.000000	80.258600
3716.000000	80.225828
3714.000000	79.963246
3712.000000	79.788933
3710.000000	79.988422
3708.000000	80.351641
3706.000000	80.576657
3704.000000	80.591846
3702.000000	80.584035
3700.000000	80.708904
3698.000000	80.852248
3696.000000	80.904467
3694.000000	80.815973
3692.000000	80.511943
3690.000000	80.162797
3688.000000	80.260266
3686.000000	80.780230
3684.000000	81.142317
3682.000000	81.191041
3680.000000	81.020680
3678.000000	80.586772
3676.000000	80.270496
3674.000000	80.405797
3672.000000	80.511790
3670.000000	80.616456
3668.000000	81.046988
3666.000000	81.453776
3664.000000	81.612921
3662.000000	81.646603
3660.000000	81.579139
3658.000000	81.391809
3656.000000	81.323728
3654.000000	81.345324
3652.000000	81.062397
3650.000000	80.727261
3648.000000	80.884797
3646.000000	81.371347
3644.000000	81.718701
3642.000000	81.841009
3640.000000	81.876475
3638.000000	81.883713
3636.000000	81.855709
3634.000000	81.767246
3632.000000	81.461758
3630.000000	81.067600
3628.000000	81.166524
3626.000000	81.642850
3624.000000	81.880317
3622.000000	81.756600
3620.000000	81.568640
3618.000000	81.600278
3616.000000	81.712440
3614.000000	81.704296
3612.000000	81.634183
3610.000000	81.583505
3608.000000	81.668468
3606.000000	81.865022
3604.000000	81.974202
3602.000000	81.964943
3600.000000	81.938451
3598.000000	81.915033
3596.000000	81.883998
3594.000000	81.891255
3592.000000	81.877776
3590.000000	81.731424
3588.000000	81.611813
3586.000000	81.712187
3584.000000	81.888322
3582.000000	81.968540
3580.000000	81.975236
3578.000000	81.968924
3576.000000	81.967088
3574.000000	81.967023
3572.000000	81.921451
3570.000000	81.763920
3568.000000	81.605823
3566.000000	81.638217
3564.000000	81.780616
3562.000000	81.863211
3560.000000	81.888049
3558.000000	81.901092
3556.000000	81.890080
3554.000000	81.850078
3552.000000	81.825850
3550.000000	81.812175
3548.000000	81.759728
3546.000000	81.718865
3544.000000	81.745285
3542.000000	81.790290
3540.000000	81.798674
3538.000000	81.772692
3536.000000	81.748076
3534.000000	81.736687
3532.000000	81.704604
3530.000000	81.644101
3528.000000	81.585882
3526.000000	81.540436
3524.000000	81.504116
3522.000000	81.489014
3520.000000	81.479532
3518.000000	81.456624
3516.000000	81.423682
3514.000000	81.379490
3512.000000	81.321933
3510.000000	81.267382
3508.000000	81.227188
3506.000000	81.169006
3504.000000	81.089552
3502.000000	81.038820
3500.000000	81.009779
3498.000000	80.962567
3496.000000	80.905786
3494.000000	80.856413
3492.000000	80.805371
3490.000000	80.746040
3488.000000	80.691470
3486.000000	80.649252
3484.000000	80.605558
3482.000000	80.564310
3480.000000	80.545435
3478.000000	80.543452
3476.000000	80.542518
3474.000000	80.545950
3472.000000	80.554421
3470.000000	80.562347
3468.000000	80.577934
3466.000000	80.607638
3464.000000	80.641616
3462.000000	80.676488
3460.000000	80.716050
3458.000000	80.754434
3456.000000	80.785793
3454.000000	80.812652
3452.000000	80.833610
3450.000000	80.839227
3448.000000	80.839861
3446.000000	80.867242
3444.000000	80.916075
3442.000000	80.973751
3440.000000	81.047006
3438.000000	81.134412
3436.000000	81.236685
3434.000000	81.358186
3432.000000	81.494757
3430.000000	81.638164
3428.000000	81.782146
3426.000000	81.919045
3424.000000	82.040645
3422.000000	82.149122
3420.000000	82.258212
3418.000000	82.367675
3416.000000	82.466588
3414.000000	82.550040
3412.000000	82.623045
3410.000000	82.689590
3408.000000	82.750130
3406.000000	82.804097
3404.000000	82.852938
3402.000000	82.902004
3400.000000	82.959682
3398.000000	83.033789
3396.000000	83.113500
3394.000000	83.182031
3392.000000	83.249572
3390.000000	83.328917
3388.000000	83.405279
3386.000000	83.468533
3384.000000	83.526769
3382.000000	83.584206
3380.000000	83.638122
3378.000000	83.688713
3376.000000	83.738836
3374.000000	83.786960
3372.000000	83.826433
3370.000000	83.859123
3368.000000	83.898827
3366.000000	83.948604
3364.000000	83.999458
3362.000000	84.046379
3360.000000	84.090826
3358.000000	84.134185
3356.000000	84.176202
3354.000000	84.217480
3352.000000	84.256549
3350.000000	84.296256
3348.000000	84.340137
3346.000000	84.384313
3344.000000	84.425926
3342.000000	84.465186
3340.000000	84.501338
3338.000000	84.538022
3336.000000	84.580535
3334.000000	84.624560
3332.000000	84.665889
3330.000000	84.702839
3328.000000	84.735292
3326.000000	84.768587
3324.000000	84.806996
3322.000000	84.846323
3320.000000	84.884724
3318.000000	84.921849
3316.000000	84.954947
3314.000000	84.987066
3312.000000	85.020869
3310.000000	85.048299
3308.000000	85.072057
3306.000000	85.101907
3304.000000	85.143961
3302.000000	85.191662
3300.000000	85.232184
3298.000000	85.265625
3296.000000	85.295561
3294.000000	85.325798
3292.000000	85.361461
3290.000000	85.403580
3288.000000	85.446128
3286.000000	85.484621
3284.000000	85.522837
3282.000000	85.560727
3280.000000	85.596982
3278.000000	85.631126
3276.000000	85.664344
3274.000000	85.700252
3272.000000	85.739857
3270.000000	85.784779
3268.000000	85.832642
3266.000000	85.876156
3264.000000	85.917817
3262.000000	85.961294
3260.000000	86.004476
3258.000000	86.046110
3256.000000	86.087795
3254.000000	86.134021
3252.000000	86.186504
3250.000000	86.235752
3248.000000	86.277162
3246.000000	86.320190
3244.000000	86.372322
3242.000000	86.425724
3240.000000	86.476397
3238.000000	86.526115
3236.000000	86.572963
3234.000000	86.616237
3232.000000	86.665963
3230.000000	86.722516
3228.000000	86.775424
3226.000000	86.826120
3224.000000	86.875274
3222.000000	86.919459
3220.000000	86.963999
3218.000000	87.012259
3216.000000	87.061762
3214.000000	87.112215
3212.000000	87.164251
3210.000000	87.217265
3208.000000	87.276604
3206.000000	87.341242
3204.000000	87.407668
3202.000000	87.475692
3200.000000	87.543836
3198.000000	87.613573
3196.000000	87.688933
3194.000000	87.765643
3192.000000	87.838942
3190.000000	87.908965
3188.000000	87.978226
3186.000000	88.048360
3184.000000	88.121036
3182.000000	88.193498
3180.000000	88.262085
3178.000000	88.330735
3176.000000	88.405458
3174.000000	88.480382
3172.000000	88.552266
3170.000000	88.624427
3168.000000	88.699412
3166.000000	88.775813
3164.000000	88.852799
3162.000000	88.929340
3160.000000	89.007145
3158.000000	89.085669
3156.000000	89.163052
3154.000000	89.235668
3152.000000	89.309735
3150.000000	89.393650
3148.000000	89.476929
3146.000000	89.553456
3144.000000	89.628834
3142.000000	89.701848
3140.000000	89.772689
3138.000000	89.844845
3136.000000	89.916421
3134.000000	89.983292
3132.000000	90.051041
3130.000000	90.118715
3128.000000	90.183647
3126.000000	90.245541
3124.000000	90.301570
3122.000000	90.352097
3120.000000	90.402919
3118.000000	90.454125
3116.000000	90.508580
3114.000000	90.569270
3112.000000	90.627308
3110.000000	90.678090
3108.000000	90.731907
3106.000000	90.791918
3104.000000	90.853086
3102.000000	90.912605
3100.000000	90.974096
3098.000000	91.039110
3096.000000	91.104947
3094.000000	91.172270
3092.000000	91.237611
3090.000000	91.297808
3088.000000	91.354768
3086.000000	91.406677
3084.000000	91.454402
3082.000000	91.498453
3080.000000	91.536276
3078.000000	91.573295
3076.000000	91.614481
3074.000000	91.646365
3072.000000	91.663582
3070.000000	91.671347
3068.000000	91.676726
3066.000000	91.692069
3064.000000	91.727396
3062.000000	91.778114
3060.000000	91.834487
3058.000000	91.890548
3056.000000	91.950246
3054.000000	92.013222
3052.000000	92.071593
3050.000000	92.123280
3048.000000	92.171663
3046.000000	92.213267
3044.000000	92.246207
3042.000000	92.272222
3040.000000	92.296469
3038.000000	92.315861
3036.000000	92.324852
3034.000000	92.322514
3032.000000	92.310732
3030.000000	92.279313
3028.000000	92.214301
3026.000000	92.108162
3024.000000	91.978065
3022.000000	91.859541
3020.000000	91.793956
3018.000000	91.820150
3016.000000	91.960662
3014.000000	92.198910
3012.000000	92.485957
3010.000000	92.765817
3008.000000	92.995310
3006.000000	93.157647
3004.000000	93.269535
3002.000000	93.349143
3000.000000	93.406721
2998.000000	93.449477
2996.000000	93.481001
2994.000000	93.501043
2992.000000	93.512352
2990.000000	93.510871
2988.000000	93.492306
2986.000000	93.457422
2984.000000	93.400163
2982.000000	93.312505
2980.000000	93.191450
2978.000000	93.028585
2976.000000	92.803315
2974.000000	92.495241
2972.000000	92.097211
2970.000000	91.613276
2968.000000	91.086149
2966.000000	90.598194
2964.000000	90.238553
2962.000000	90.064361
2960.000000	90.076942
2958.000000	90.217870
2956.000000	90.409802
2954.000000	90.592434
2952.000000	90.735337
2950.000000	90.809073
2948.000000	90.776147
2946.000000	90.612619
2944.000000	90.317290
2942.000000	89.903571
2940.000000	89.406862
2938.000000	88.889012
2936.000000	88.411421
2934.000000	87.986593
2932.000000	87.584746
2930.000000	87.192325
2928.000000	86.860257
2926.000000	86.693226
2924.000000	86.801261
2922.000000	87.224334
2920.000000	87.906001
2918.000000	88.730390
2916.000000	89.589401
2914.000000	90.398230
2912.000000	91.093776
2910.000000	91.647925
2908.000000	92.080660
2906.000000	92.431067
2904.000000	92.734985
2902.000000	93.011512
2900.000000	93.268073
2898.000000	93.508539
2896.000000	93.735334
2894.000000	93.949637
2892.000000	94.154674
2890.000000	94.343621
2888.000000	94.508639
2886.000000	94.638779
2884.000000	94.726970
2882.000000	94.771071
2880.000000	94.769216
2878.000000	94.716047
2876.000000	94.604706
2874.000000	94.425029
2872.000000	94.166935
2870.000000	93.803737
2868.000000	93.313865
2866.000000	92.734514
2864.000000	92.188336
2862.000000	91.830484
2860.000000	91.754083
2858.000000	91.923105
2856.000000	92.227823
2854.000000	92.588705
2852.000000	93.004246
2850.000000	93.513029
2848.000000	94.120837
2846.000000	94.745590
2844.000000	95.291663
2842.000000	95.727273
2840.000000	96.068815
2838.000000	96.340770
2836.000000	96.563444
2834.000000	96.746655
2832.000000	96.901485
2830.000000	97.038061
2828.000000	97.160132
2826.000000	97.269584
2824.000000	97.372137
2822.000000	97.467191
2820.000000	97.553523
2818.000000	97.632364
2816.000000	97.703804
2814.000000	97.766459
2812.000000	97.823630
2810.000000	97.877188
2808.000000	97.927983
2806.000000	97.975479
2804.000000	98.023056
2802.000000	98.067260
2800.000000	98.108204
2798.000000	98.148506
2796.000000	98.188656
2794.000000	98.228817
2792.000000	98.276233
2790.000000	98.333775
2788.000000	98.405195
2786.000000	98.486325
2784.000000	98.569738
2782.000000	98.648538
2780.000000	98.722775
2778.000000	98.791267
2776.000000	98.853238
2774.000000	98.910468
2772.000000	98.966674
2770.000000	99.019028
2768.000000	99.071357
2766.000000	99.121754
2764.000000	99.168625
2762.000000	99.211990
2760.000000	99.256253
2758.000000	99.301237
2756.000000	99.345156
2754.000000	99.384363
2752.000000	99.424053
2750.000000	99.464849
2748.000000	99.503520
2746.000000	99.537633
2744.000000	99.570705
2742.000000	99.604793
2740.000000	99.639152
2738.000000	99.671725
2736.000000	99.706790
2734.000000	99.741556
2732.000000	99.774088
2730.000000	99.806008
2728.000000	99.839994
2726.000000	99.872117
2724.000000	99.902945
2722.000000	99.935107
2720.000000	99.968165
2718.000000	99.999163
2716.000000	100.030217
2714.000000	100.057859
2712.000000	100.082026
2710.000000	100.104296
2708.000000	100.128281
2706.000000	100.153165
2704.000000	100.183881
2702.000000	100.220590
2700.000000	100.262382
2698.000000	100.306481
2696.000000	100.353699
2694.000000	100.398976
2692.000000	100.442238
2690.000000	100.483542
2688.000000	100.523397
2686.000000	100.561953
2684.000000	100.601428
2682.000000	100.637188
2680.000000	100.670581
2678.000000	100.703266
2676.000000	100.736150
2674.000000	100.767136
2672.000000	100.798966
2670.000000	100.828058
2668.000000	100.856357
2666.000000	100.884233
2664.000000	100.914225
2662.000000	100.943497
2660.000000	100.973254
2658.000000	101.003763
2656.000000	101.037734
2654.000000	101.074294
2652.000000	101.111235
2650.000000	101.149495
2648.000000	101.189178
2646.000000	101.227218
2644.000000	101.265801
2642.000000	101.302289
2640.000000	101.335549
2638.000000	101.367713
2636.000000	101.401996
2634.000000	101.436077
2632.000000	101.468267
2630.000000	101.498280
2628.000000	101.528871
2626.000000	101.554143
2624.000000	101.579108
2622.000000	101.606845
2620.000000	101.634234
2618.000000	101.660075
2616.000000	101.686826
2614.000000	101.712056
2612.000000	101.737102
2610.000000	101.758728
2608.000000	101.776390
2606.000000	101.791479
2604.000000	101.806896
2602.000000	101.818534
2600.000000	101.827964
2598.000000	101.836010
2596.000000	101.846239
2594.000000	101.860405
2592.000000	101.882146
2590.000000	101.912057
2588.000000	101.954662
2586.000000	102.007653
2584.000000	102.066545
2582.000000	102.127314
2580.000000	102.188262
2578.000000	102.244668
2576.000000	102.299619
2574.000000	102.346743
2572.000000	102.387139
2570.000000	102.425819
2568.000000	102.464522
2566.000000	102.499954
2564.000000	102.533091
2562.000000	102.563437
2560.000000	102.591977
2558.000000	102.619349
2556.000000	102.646955
2554.000000	102.671607
2552.000000	102.697369
2550.000000	102.723225
2548.000000	102.748136
2546.000000	102.772464
2544.000000	102.798248
2542.000000	102.822637
2540.000000	102.847745
2538.000000	102.874583
2536.000000	102.903760
2534.000000	102.929054
2532.000000	102.952742
2530.000000	102.976650
2528.000000	103.001508
2526.000000	103.025412
2524.000000	103.050921
2522.000000	103.075274
2520.000000	103.097886
2518.000000	103.119815
2516.000000	103.144075
2514.000000	103.166985
2512.000000	103.190053
2510.000000	103.212064
2508.000000	103.232555
2506.000000	103.250677
2504.000000	103.270666
2502.000000	103.292372
2500.000000	103.315902
2498.000000	103.338172
2496.000000	103.361500
2494.000000	103.386610
2492.000000	103.414089
2490.000000	103.440116
2488.000000	103.467187
2486.000000	103.492125
2484.000000	103.517388
2482.000000	103.540864
2480.000000	103.565201
2478.000000	103.588532
2476.000000	103.611569
2474.000000	103.632014
2472.000000	103.652481
2470.000000	103.671955
2468.000000	103.689125
2466.000000	103.702847
2464.000000	103.719048
2462.000000	103.735050
2460.000000	103.752036
2458.000000	103.767377
2456.000000	103.783302
2454.000000	103.798433
2452.000000	103.815035
2450.000000	103.832378
2448.000000	103.849202
2446.000000	103.862897
2444.000000	103.879584
2442.000000	103.895459
2440.000000	103.908698
2438.000000	103.920839
2436.000000	103.936674
2434.000000	103.950578
2432.000000	103.962950
2430.000000	103.970608
2428.000000	103.980004
2426.000000	103.993196
2424.000000	104.009842
2422.000000	104.023847
2420.000000	104.036531
2418.000000	104.050701
2416.000000	104.066028
2414.000000	104.075566
2412.000000	104.084757
2410.000000	104.094557
2408.000000	104.106189
2406.000000	104.117924
2404.000000	104.132022
2402.000000	104.146800
2400.000000	104.163682
2398.000000	104.179359
2396.000000	104.196322
2394.000000	104.212447
2392.000000	104.227626
2390.000000	104.242240
2388.000000	104.257712
2386.000000	104.262032
2384.000000	104.253189
2382.000000	104.218982
2380.000000	104.149457
2378.000000	104.036981
2376.000000	103.876943
2374.000000	103.670093
2372.000000	103.432983
2370.000000	103.180068
2368.000000	102.936698
2366.000000	102.734228
2364.000000	102.600967
2362.000000	102.555504
2360.000000	102.611854
2358.000000	102.766535
2356.000000	103.013751
2354.000000	103.337573
2352.000000	103.701291
2350.000000	103.964808
2348.000000	103.951045
2346.000000	103.715882
2344.000000	103.465542
2342.000000	103.283254
2340.000000	103.176030
2338.000000	103.129016
2336.000000	103.127844
2334.000000	103.159746
2332.000000	103.221721
2330.000000	103.308877
2328.000000	103.419047
2326.000000	103.540491
2324.000000	103.665319
2322.000000	103.787158
2320.000000	103.902700
2318.000000	104.007195
2316.000000	104.103634
2314.000000	104.187383
2312.000000	104.261763
2310.000000	104.325608
2308.000000	104.378346
2306.000000	104.418496
2304.000000	104.454557
2302.000000	104.484437
2300.000000	104.509523
2298.000000	104.528454
2296.000000	104.545615
2294.000000	104.560564
2292.000000	104.574746
2290.000000	104.584656
2288.000000	104.596431
2286.000000	104.607261
2284.000000	104.615579
2282.000000	104.614189
2280.000000	104.610047
2278.000000	104.605339
2276.000000	104.601733
2274.000000	104.594961
2272.000000	104.588650
2270.000000	104.581579
2268.000000	104.576547
2266.000000	104.569801
2264.000000	104.566603
2262.000000	104.563490
2260.000000	104.561452
2258.000000	104.557619
2256.000000	104.557760
2254.000000	104.558673
2252.000000	104.562584
2250.000000	104.566336
2248.000000	104.574219
2246.000000	104.583477
2244.000000	104.593957
2242.000000	104.603746
2240.000000	104.614933
2238.000000	104.627001
2236.000000	104.644237
2234.000000	104.658870
2232.000000	104.671163
2230.000000	104.680187
2228.000000	104.692877
2226.000000	104.703873
2224.000000	104.714813
2222.000000	104.724357
2220.000000	104.733135
2218.000000	104.737974
2216.000000	104.744021
2214.000000	104.748148
2212.000000	104.753099
2210.000000	104.757287
2208.000000	104.764251
2206.000000	104.767497
2204.000000	104.769738
2202.000000	104.772355
2200.000000	104.778947
2198.000000	104.781992
2196.000000	104.784232
2194.000000	104.783999
2192.000000	104.785049
2190.000000	104.785053
2188.000000	104.785469
2186.000000	104.782764
2184.000000	104.783424
2182.000000	104.783751
2180.000000	104.783589
2178.000000	104.780125
2176.000000	104.777728
2174.000000	104.768027
2172.000000	104.743018
2170.000000	104.714892
2168.000000	104.723897
2166.000000	104.746180
2164.000000	104.755915
2162.000000	104.755418
2160.000000	104.753114
2158.000000	104.748846
2156.000000	104.748745
2154.000000	104.749356
2152.000000	104.748611
2150.000000	104.743505
2148.000000	104.743215
2146.000000	104.743208
2144.000000	104.742764
2142.000000	104.737838
2140.000000	104.735159
2138.000000	104.732235
2136.000000	104.730928
2134.000000	104.728208
2132.000000	104.727789
2130.000000	104.726424
2128.000000	104.725759
2126.000000	104.723559
2124.000000	104.721795
2122.000000	104.722083
2120.000000	104.724878
2118.000000	104.728143
2116.000000	104.732936
2114.000000	104.737964
2112.000000	104.747977
2110.000000	104.757624
2108.000000	104.768439
2106.000000	104.778630
2104.000000	104.792199
2102.000000	104.802132
2100.000000	104.812059
2098.000000	104.823305
2096.000000	104.838740
2094.000000	104.850649
2092.000000	104.861484
2090.000000	104.870231
2088.000000	104.887538
2086.000000	104.903699
2084.000000	104.923746
2082.000000	104.939809
2080.000000	104.953664
2078.000000	104.964014
2076.000000	104.979306
2074.000000	104.993325
2072.000000	105.013380
2070.000000	105.031475
2068.000000	105.044452
2066.000000	105.052238
2064.000000	105.075143
2062.000000	105.104396
2060.000000	105.131887
2058.000000	105.154368
2056.000000	105.175351
2054.000000	105.192572
2052.000000	105.212740
2050.000000	105.231859
2048.000000	105.252815
2046.000000	105.269887
2044.000000	105.285162
2042.000000	105.294629
2040.000000	105.314853
2038.000000	105.334179
2036.000000	105.347315
2034.000000	105.354556
2032.000000	105.355352
2030.000000	105.336390
2028.000000	105.343745
2026.000000	105.378532
2024.000000	105.403459
2022.000000	105.411012
2020.000000	105.406963
2018.000000	105.397247
2016.000000	105.421872
2014.000000	105.462877
2012.000000	105.489114
2010.000000	105.502135
2008.000000	105.515295
2006.000000	105.527582
2004.000000	105.539950
2002.000000	105.544533
2000.000000	105.547729
1998.000000	105.552010
1996.000000	105.553306
1994.000000	105.514767
1992.000000	105.480300
1990.000000	105.504588
1988.000000	105.532984
1986.000000	105.542046
1984.000000	105.540167
1982.000000	105.528498
1980.000000	105.516811
1978.000000	105.501416
1976.000000	105.485086
1974.000000	105.468156
1972.000000	105.449469
1970.000000	105.411540
1968.000000	105.354819
1966.000000	105.334535
1964.000000	105.339280
1962.000000	105.286183
1960.000000	105.164065
1958.000000	105.130441
1956.000000	105.210142
1954.000000	105.238204
1952.000000	105.219969
1950.000000	105.186576
1948.000000	105.163028
1946.000000	105.116500
1944.000000	105.026812
1942.000000	104.985993
1940.000000	105.046162
1938.000000	105.065147
1936.000000	105.046883
1934.000000	105.016032
1932.000000	104.989525
1930.000000	104.960132
1928.000000	104.932089
1926.000000	104.873659
1924.000000	104.781332
1922.000000	104.727261
1920.000000	104.632814
1918.000000	104.510420
1916.000000	104.588296
1914.000000	104.641981
1912.000000	104.585010
1910.000000	104.497486
1908.000000	104.457688
1906.000000	104.427174
1904.000000	104.383744
1902.000000	104.329562
1900.000000	104.284249
1898.000000	104.220852
1896.000000	104.152426
1894.000000	104.116176
1892.000000	104.064294
1890.000000	103.960839
1888.000000	103.991230
1886.000000	104.044062
1884.000000	104.041960
1882.000000	104.025351
1880.000000	104.007798
1878.000000	103.978820
1876.000000	103.956891
1874.000000	103.916844
1872.000000	103.783395
1870.000000	103.519939
1868.000000	103.487891
1866.000000	103.666452
1864.000000	103.753566
1862.000000	103.731353
1860.000000	103.698326
1858.000000	103.666639
1856.000000	103.642672
1854.000000	103.604672
1852.000000	103.567497
1850.000000	103.494565
1848.000000	103.352810
1846.000000	102.974938
1844.000000	102.739254
1842.000000	103.042021
1840.000000	103.246759
1838.000000	103.195489
1836.000000	103.144781
1834.000000	103.074308
1832.000000	102.832792
1830.000000	102.588059
1828.000000	102.627058
1826.000000	102.590103
1824.000000	102.592089
1822.000000	102.679396
1820.000000	102.654936
1818.000000	102.569143
1816.000000	102.503904
1814.000000	102.410676
1812.000000	102.251690
1810.000000	102.144846
1808.000000	102.125178
1806.000000	102.058785
1804.000000	101.892557
1802.000000	101.640987
1800.000000	101.504382
1798.000000	101.494968
1796.000000	101.367792
1794.000000	100.896551
1792.000000	100.624712
1790.000000	100.880774
1788.000000	101.012502
1786.000000	100.818643
1784.000000	100.680180
1782.000000	100.585088
1780.000000	100.481183
1778.000000	100.421167
1776.000000	100.159018
1774.000000	99.493057
1772.000000	99.154354
1770.000000	99.447251
1768.000000	99.610616
1766.000000	99.765889
1764.000000	99.621104
1762.000000	99.299947
1760.000000	99.308265
1758.000000	99.223900
1756.000000	99.089317
1754.000000	98.888509
1752.000000	98.293844
1750.000000	98.074881
1748.000000	98.217384
1746.000000	98.243159
1744.000000	98.095447
1742.000000	97.784038
1740.000000	97.482413
1738.000000	97.434117
1736.000000	96.712950
1734.000000	95.976378
1732.000000	96.648752
1730.000000	97.292444
1728.000000	97.443035
1726.000000	97.428317
1724.000000	97.335925
1722.000000	97.181870
1720.000000	96.486859
1718.000000	95.524094
1716.000000	95.688606
1714.000000	96.374426
1712.000000	96.704286
1710.000000	96.643243
1708.000000	96.358244
1706.000000	96.014235
1704.000000	95.821838
1702.000000	94.922039
1700.000000	94.247465
1698.000000	94.479640
1696.000000	94.399007
1694.000000	95.222146
1692.000000	95.950220
1690.000000	95.893042
1688.000000	95.506425
1686.000000	94.282030
1684.000000	93.812317
1682.000000	94.889982
1680.000000	95.502731
1678.000000	95.350849
1676.000000	94.818920
1674.000000	94.798914
1672.000000	94.829800
1670.000000	94.488949
1668.000000	94.663684
1666.000000	94.933524
1664.000000	94.654921
1662.000000	94.500118
1660.000000	94.678941
1658.000000	94.584974
1656.000000	93.558669
1654.000000	91.651981
1652.000000	91.756765
1650.000000	93.222377
1648.000000	93.112658
1646.000000	92.817807
1644.000000	93.348761
1642.000000	93.649743
1640.000000	93.435364
1638.000000	92.713248
1636.000000	91.867529
1634.000000	92.189173
1632.000000	92.744658
1630.000000	92.574479
1628.000000	92.190049
1626.000000	91.793824
1624.000000	91.215325
1622.000000	90.868777
1620.000000	90.479752
1618.000000	89.440504
1616.000000	88.939173
1614.000000	89.148316
1612.000000	88.759836
1610.000000	88.130907
1608.000000	87.809714
1606.000000	87.849281
1604.000000	88.046544
1602.000000	88.293829
1600.000000	88.536893
1598.000000	88.745241
1596.000000	88.887832
1594.000000	89.000855
1592.000000	89.070901
1590.000000	89.076804
1588.000000	89.041147
1586.000000	88.974630
1584.000000	88.898050
1582.000000	88.845012
1580.000000	88.697589
1578.000000	87.955488
1576.000000	87.424230
1574.000000	88.092705
1572.000000	88.296432
1570.000000	87.886776
1568.000000	87.914532
1566.000000	87.950205
1564.000000	87.650003
1562.000000	86.596985
1560.000000	84.904779
1558.000000	84.902684
1556.000000	86.091828
1554.000000	86.773990
1552.000000	87.305711
1550.000000	87.619901
1548.000000	87.799413
1546.000000	87.693945
1544.000000	87.356242
1542.000000	86.727059
1540.000000	86.391533
1538.000000	87.486138
1536.000000	88.574393
1534.000000	88.620697
1532.000000	88.908352
1530.000000	89.192867
1528.000000	89.034130
1526.000000	88.774714
1524.000000	88.435635
1522.000000	87.811748
1520.000000	87.902802
1518.000000	88.201864
1516.000000	88.158828
1514.000000	88.118448
1512.000000	87.917018
1510.000000	87.405666
1508.000000	86.134521
1506.000000	85.432620
1504.000000	85.781149
1502.000000	85.032558
1500.000000	82.558800
1498.000000	79.225487
1496.000000	76.705141
1494.000000	76.359849
1492.000000	77.455306
1490.000000	79.186486
1488.000000	81.143936
1486.000000	82.765411
1484.000000	83.830441
1482.000000	84.348140
1480.000000	84.587317
1478.000000	84.501457
1476.000000	84.129566
1474.000000	83.564367
1472.000000	83.374131
1470.000000	83.670456
1468.000000	83.547105
1466.000000	82.934731
1464.000000	82.541982
1462.000000	82.294127
1460.000000	81.310575
1458.000000	79.578702
1456.000000	78.563911
1454.000000	78.338691
1452.000000	77.910370
1450.000000	77.977422
1448.000000	78.796328
1446.000000	79.790681
1444.000000	80.296457
1442.000000	80.416849
1440.000000	80.301508
1438.000000	79.861423
1436.000000	79.815191
1434.000000	80.326236
1432.000000	80.434974
1430.000000	80.360115
1428.000000	80.400490
1426.000000	80.413379
1424.000000	80.300129
1422.000000	80.041737
1420.000000	79.471622
1418.000000	79.422039
1416.000000	79.661709
1414.000000	79.571562
1412.000000	79.219918
1410.000000	78.691312
1408.000000	77.932490
1406.000000	77.097524
1404.000000	76.629415
1402.000000	76.649762
1400.000000	76.850120
1398.000000	77.269582
1396.000000	77.638831
1394.000000	77.963778
1392.000000	78.328200
1390.000000	78.336099
1388.000000	77.989737
1386.000000	77.722864
1384.000000	77.659737
1382.000000	77.773440
1380.000000	77.868364
1378.000000	77.806209
1376.000000	77.632295
1374.000000	77.490176
1372.000000	77.474102
1370.000000	77.389391
1368.000000	77.232557
1366.000000	77.068514
1364.000000	76.816001
1362.000000	76.622630
1360.000000	76.549144
1358.000000	76.434445
1356.000000	76.240260
1354.000000	76.034558
1352.000000	75.830022
1350.000000	75.614335
1348.000000	75.394637
1346.000000	75.168780
1344.000000	74.919439
1342.000000	74.632980
1340.000000	74.361349
1338.000000	74.226503
1336.000000	74.167214
1334.000000	74.079427
1332.000000	73.930060
1330.000000	73.737923
1328.000000	73.514029
1326.000000	73.271622
1324.000000	73.007971
1322.000000	72.723028
1320.000000	72.412541
1318.000000	72.110384
1316.000000	71.815514
1314.000000	71.505309
1312.000000	71.190899
1310.000000	70.881371
1308.000000	70.555381
1306.000000	70.223981
1304.000000	69.885039
1302.000000	69.543343
1300.000000	69.196307
1298.000000	68.848549
1296.000000	68.491326
1294.000000	68.125171
1292.000000	67.742036
1290.000000	67.347319
1288.000000	66.943865
1286.000000	66.542793
1284.000000	66.130437
1282.000000	65.699776
1280.000000	65.241131
1278.000000	64.752569
1276.000000	64.212406
1274.000000	63.597326
1272.000000	62.868192
1270.000000	61.981418
1268.000000	60.875388
1266.000000	59.555573
1264.000000	58.183104
1262.000000	57.082255
1260.000000	56.533702
1258.000000	56.541603
1256.000000	56.832039
1254.000000	57.076346
1252.000000	57.072437
1250.000000	56.829720
1248.000000	56.433737
1246.000000	55.962107
1244.000000	55.453881
1242.000000	54.937445
1240.000000	54.427314
1238.000000	53.936229
1236.000000	53.458410
1234.000000	52.993620
1232.000000	52.539082
1230.000000	52.096039
1228.000000	51.650615
1226.000000	51.198403
1224.000000	50.736091
1222.000000	50.263917
1220.000000	49.771469
1218.000000	49.261188
1216.000000	48.739618
1214.000000	48.226016
1212.000000	47.732729
1210.000000	47.279726
1208.000000	46.862902
1206.000000	46.464592
1204.000000	46.064392
1202.000000	45.664023
1200.000000	45.269207
1198.000000	44.883073
1196.000000	44.490035
1194.000000	44.087173
1192.000000	43.670774
1190.000000	43.240309
1188.000000	42.794920
1186.000000	42.323539
1184.000000	41.739581
1182.000000	41.009980
1180.000000	40.445245
1178.000000	40.199980
1176.000000	39.966287
1174.000000	39.610833
1172.000000	39.184516
1170.000000	38.732874
1168.000000	38.265957
1166.000000	37.794186
1164.000000	37.323279
1162.000000	36.860915
1160.000000	36.403800
1158.000000	35.966847
1156.000000	35.545235
1154.000000	35.126956
1152.000000	34.700986
1150.000000	34.279496
1148.000000	33.846419
1146.000000	33.405794
1144.000000	32.974187
1142.000000	32.595576
1140.000000	32.283992
1138.000000	31.971511
1136.000000	31.612628
1134.000000	31.219306
1132.000000	30.800888
1130.000000	30.372968
1128.000000	29.949136
1126.000000	29.531299
1124.000000	29.102528
1122.000000	28.662792
1120.000000	28.213055
1118.000000	27.756217
1116.000000	27.289378
1114.000000	26.819765
1112.000000	26.352113
1110.000000	25.891124
1108.000000	25.437200
1106.000000	25.003002
1104.000000	24.583690
1102.000000	24.170608
1100.000000	23.758364
1098.000000	23.351843
1096.000000	22.954107
1094.000000	22.572851
1092.000000	22.204690
1090.000000	21.852375
1088.000000	21.508418
1086.000000	21.170728
1084.000000	20.823332
1082.000000	20.464086
1080.000000	20.124711
1078.000000	19.820922
1076.000000	19.543505
1074.000000	19.309921
1072.000000	19.093707
1070.000000	18.871488
1068.000000	18.643062
1066.000000	18.411361
1064.000000	18.177815
1062.000000	17.943362
1060.000000	17.694040
1058.000000	17.407211
1056.000000	17.020823
1054.000000	16.507609
1052.000000	15.995316
1050.000000	15.694357
1048.000000	15.659722
1046.000000	15.742342
1044.000000	15.745843
1042.000000	15.629485
1040.000000	15.442133
1038.000000	15.229015
1036.000000	15.003566
1034.000000	14.766590
1032.000000	14.517504
1030.000000	14.261286
1028.000000	13.994477
1026.000000	13.723778
1024.000000	13.452915
1022.000000	13.187521
1020.000000	12.933020
1018.000000	12.696389
1016.000000	12.479419
1014.000000	12.287720
1012.000000	12.118371
1010.000000	11.962049
1008.000000	11.798177
1006.000000	11.618162
1004.000000	11.420951
1002.000000	11.210364
1000.000000	10.983635
