PE IR       SUBTECH     SPECTRUM    ASCII       PEDS        4.00        
   -1
TE109A_066_80K_after_130K_BG.ASC
20/04/21
19:21:45.00
20/04/21
19:21:45.00
Administrator
TE109A, Tuesday, April 21 2020, 066.
1000.000000
#HDR
-1
-1
#GR
cm-1
EGY
1.0
0.0
6000.000000
-2.000000
2501
8
105.454215
10.928394
#DATA
6000.000000	16.444175
5998.000000	16.477110
5996.000000	16.511316
5994.000000	16.543418
5992.000000	16.575471
5990.000000	16.608320
5988.000000	16.640946
5986.000000	16.673200
5984.000000	16.704217
5982.000000	16.736519
5980.000000	16.771990
5978.000000	16.807373
5976.000000	16.841754
5974.000000	16.875049
5972.000000	16.907246
5970.000000	16.939869
5968.000000	16.974075
5966.000000	17.008967
5964.000000	17.043509
5962.000000	17.076163
5960.000000	17.109366
5958.000000	17.145130
5956.000000	17.179354
5954.000000	17.212144
5952.000000	17.244839
5950.000000	17.278850
5948.000000	17.315691
5946.000000	17.350550
5944.000000	17.384624
5942.000000	17.417898
5940.000000	17.451726
5938.000000	17.485311
5936.000000	17.517640
5934.000000	17.549760
5932.000000	17.582526
5930.000000	17.617032
5928.000000	17.651180
5926.000000	17.685704
5924.000000	17.721353
5922.000000	17.756971
5920.000000	17.792788
5918.000000	17.829613
5916.000000	17.867122
5914.000000	17.904061
5912.000000	17.938931
5910.000000	17.973969
5908.000000	18.009756
5906.000000	18.047549
5904.000000	18.083959
5902.000000	18.120965
5900.000000	18.156993
5898.000000	18.193748
5896.000000	18.230726
5894.000000	18.266761
5892.000000	18.301661
5890.000000	18.337294
5888.000000	18.374160
5886.000000	18.411618
5884.000000	18.447367
5882.000000	18.482058
5880.000000	18.517404
5878.000000	18.553092
5876.000000	18.590181
5874.000000	18.627291
5872.000000	18.663464
5870.000000	18.699685
5868.000000	18.735404
5866.000000	18.773241
5864.000000	18.811542
5862.000000	18.849466
5860.000000	18.885534
5858.000000	18.921316
5856.000000	18.959056
5854.000000	18.997596
5852.000000	19.037385
5850.000000	19.077685
5848.000000	19.118154
5846.000000	19.157658
5844.000000	19.195429
5842.000000	19.235126
5840.000000	19.277645
5838.000000	19.321318
5836.000000	19.362701
5834.000000	19.402428
5832.000000	19.441613
5830.000000	19.482216
5828.000000	19.524222
5826.000000	19.566043
5824.000000	19.607206
5822.000000	19.648076
5820.000000	19.688434
5818.000000	19.730168
5816.000000	19.771754
5814.000000	19.813115
5812.000000	19.853886
5810.000000	19.895061
5808.000000	19.936003
5806.000000	19.976337
5804.000000	20.015513
5802.000000	20.055270
5800.000000	20.095591
5798.000000	20.136996
5796.000000	20.178422
5794.000000	20.219678
5792.000000	20.260058
5790.000000	20.300790
5788.000000	20.341374
5786.000000	20.382319
5784.000000	20.423127
5782.000000	20.463910
5780.000000	20.505790
5778.000000	20.549779
5776.000000	20.593823
5774.000000	20.635466
5772.000000	20.675458
5770.000000	20.716030
5768.000000	20.757744
5766.000000	20.799447
5764.000000	20.840948
5762.000000	20.884187
5760.000000	20.926987
5758.000000	20.968098
5756.000000	21.008439
5754.000000	21.049059
5752.000000	21.091608
5750.000000	21.133622
5748.000000	21.174369
5746.000000	21.216034
5744.000000	21.258707
5742.000000	21.301864
5740.000000	21.341867
5738.000000	21.379724
5736.000000	21.417736
5734.000000	21.457808
5732.000000	21.499680
5730.000000	21.541501
5728.000000	21.581722
5726.000000	21.621755
5724.000000	21.663619
5722.000000	21.706977
5720.000000	21.749289
5718.000000	21.791825
5716.000000	21.834867
5714.000000	21.878545
5712.000000	21.922069
5710.000000	21.965511
5708.000000	22.010035
5706.000000	22.054349
5704.000000	22.097063
5702.000000	22.140186
5700.000000	22.184999
5698.000000	22.231510
5696.000000	22.278149
5694.000000	22.322247
5692.000000	22.365973
5690.000000	22.409698
5688.000000	22.454288
5686.000000	22.501683
5684.000000	22.548072
5682.000000	22.592788
5680.000000	22.636320
5678.000000	22.681316
5676.000000	22.727555
5674.000000	22.773726
5672.000000	22.818732
5670.000000	22.864737
5668.000000	22.910205
5666.000000	22.955198
5664.000000	23.000861
5662.000000	23.046801
5660.000000	23.093296
5658.000000	23.139051
5656.000000	23.183563
5654.000000	23.228516
5652.000000	23.273835
5650.000000	23.318900
5648.000000	23.363601
5646.000000	23.409411
5644.000000	23.456684
5642.000000	23.503744
5640.000000	23.547415
5638.000000	23.590562
5636.000000	23.636163
5634.000000	23.684032
5632.000000	23.730226
5630.000000	23.773888
5628.000000	23.817439
5626.000000	23.862118
5624.000000	23.907839
5622.000000	23.954666
5620.000000	24.000118
5618.000000	24.045430
5616.000000	24.091180
5614.000000	24.137452
5612.000000	24.182047
5610.000000	24.226157
5608.000000	24.272234
5606.000000	24.318865
5604.000000	24.363517
5602.000000	24.408035
5600.000000	24.453779
5598.000000	24.500494
5596.000000	24.547106
5594.000000	24.594419
5592.000000	24.641633
5590.000000	24.687977
5588.000000	24.733876
5586.000000	24.781750
5584.000000	24.830271
5582.000000	24.877603
5580.000000	24.923266
5578.000000	24.969364
5576.000000	25.015538
5574.000000	25.062679
5572.000000	25.109924
5570.000000	25.157899
5568.000000	25.204849
5566.000000	25.252297
5564.000000	25.301238
5562.000000	25.351244
5560.000000	25.398185
5558.000000	25.444295
5556.000000	25.491342
5554.000000	25.539541
5552.000000	25.586553
5550.000000	25.632836
5548.000000	25.680996
5546.000000	25.730634
5544.000000	25.778904
5542.000000	25.826764
5540.000000	25.873491
5538.000000	25.920363
5536.000000	25.966767
5534.000000	26.014830
5532.000000	26.062973
5530.000000	26.110758
5528.000000	26.157894
5526.000000	26.205448
5524.000000	26.252331
5522.000000	26.299365
5520.000000	26.345928
5518.000000	26.392582
5516.000000	26.439853
5514.000000	26.488796
5512.000000	26.537089
5510.000000	26.582734
5508.000000	26.628019
5506.000000	26.675661
5504.000000	26.726130
5502.000000	26.777090
5500.000000	26.827190
5498.000000	26.873636
5496.000000	26.915184
5494.000000	26.956705
5492.000000	27.002790
5490.000000	27.054721
5488.000000	27.107787
5486.000000	27.160075
5484.000000	27.211698
5482.000000	27.262619
5480.000000	27.307997
5478.000000	27.349829
5476.000000	27.394929
5474.000000	27.446859
5472.000000	27.500995
5470.000000	27.552217
5468.000000	27.601810
5466.000000	27.650224
5464.000000	27.696511
5462.000000	27.743576
5460.000000	27.792935
5458.000000	27.846303
5456.000000	27.900705
5454.000000	27.952322
5452.000000	27.998626
5450.000000	28.039950
5448.000000	28.081482
5446.000000	28.127441
5444.000000	28.175658
5442.000000	28.226703
5440.000000	28.278121
5438.000000	28.327677
5436.000000	28.376540
5434.000000	28.424411
5432.000000	28.471661
5430.000000	28.519152
5428.000000	28.570767
5426.000000	28.628253
5424.000000	28.684305
5422.000000	28.736100
5420.000000	28.784125
5418.000000	28.825164
5416.000000	28.860212
5414.000000	28.898328
5412.000000	28.947229
5410.000000	29.006294
5408.000000	29.066086
5406.000000	29.122647
5404.000000	29.175759
5402.000000	29.227199
5400.000000	29.275535
5398.000000	29.318302
5396.000000	29.357235
5394.000000	29.404292
5392.000000	29.461214
5390.000000	29.518819
5388.000000	29.566665
5386.000000	29.613244
5384.000000	29.666758
5382.000000	29.722058
5380.000000	29.768266
5378.000000	29.811226
5376.000000	29.860518
5374.000000	29.918937
5372.000000	29.977212
5370.000000	30.031870
5368.000000	30.082536
5366.000000	30.131854
5364.000000	30.182568
5362.000000	30.236937
5360.000000	30.290119
5358.000000	30.335989
5356.000000	30.374736
5354.000000	30.418104
5352.000000	30.469073
5350.000000	30.522633
5348.000000	30.566940
5346.000000	30.609485
5344.000000	30.658559
5342.000000	30.710296
5340.000000	30.759082
5338.000000	30.810112
5336.000000	30.868424
5334.000000	30.928352
5332.000000	30.981478
5330.000000	31.029029
5328.000000	31.077555
5326.000000	31.131330
5324.000000	31.189005
5322.000000	31.245261
5320.000000	31.297806
5318.000000	31.347209
5316.000000	31.395350
5314.000000	31.446006
5312.000000	31.497204
5310.000000	31.544138
5308.000000	31.590975
5306.000000	31.642619
5304.000000	31.697189
5302.000000	31.749180
5300.000000	31.799148
5298.000000	31.850841
5296.000000	31.902666
5294.000000	31.950450
5292.000000	31.996311
5290.000000	32.045911
5288.000000	32.099826
5286.000000	32.155013
5284.000000	32.207906
5282.000000	32.261557
5280.000000	32.316765
5278.000000	32.373260
5276.000000	32.426862
5274.000000	32.477578
5272.000000	32.527344
5270.000000	32.577491
5268.000000	32.622296
5266.000000	32.663781
5264.000000	32.710964
5262.000000	32.769800
5260.000000	32.830430
5258.000000	32.882546
5256.000000	32.931457
5254.000000	32.984435
5252.000000	33.035469
5250.000000	33.080375
5248.000000	33.125915
5246.000000	33.180751
5244.000000	33.241719
5242.000000	33.302057
5240.000000	33.358983
5238.000000	33.412889
5236.000000	33.463977
5234.000000	33.511743
5232.000000	33.559861
5230.000000	33.609052
5228.000000	33.656251
5226.000000	33.704336
5224.000000	33.759132
5222.000000	33.818979
5220.000000	33.874219
5218.000000	33.926823
5216.000000	33.981403
5214.000000	34.035398
5212.000000	34.081627
5210.000000	34.121962
5208.000000	34.166321
5206.000000	34.223023
5204.000000	34.286527
5202.000000	34.347101
5200.000000	34.399311
5198.000000	34.449843
5196.000000	34.504122
5194.000000	34.560593
5192.000000	34.615885
5190.000000	34.669407
5188.000000	34.721211
5186.000000	34.774432
5184.000000	34.829823
5182.000000	34.886410
5180.000000	34.940315
5178.000000	34.994006
5176.000000	35.049271
5174.000000	35.104853
5172.000000	35.158022
5170.000000	35.211449
5168.000000	35.266568
5166.000000	35.321862
5164.000000	35.376614
5162.000000	35.431058
5160.000000	35.485686
5158.000000	35.540247
5156.000000	35.594703
5154.000000	35.649463
5152.000000	35.704277
5150.000000	35.759723
5148.000000	35.813900
5146.000000	35.865853
5144.000000	35.917630
5142.000000	35.970996
5140.000000	36.025561
5138.000000	36.081346
5136.000000	36.137191
5134.000000	36.193154
5132.000000	36.247103
5130.000000	36.301292
5128.000000	36.354935
5126.000000	36.408458
5124.000000	36.461930
5122.000000	36.515974
5120.000000	36.569752
5118.000000	36.624135
5116.000000	36.679558
5114.000000	36.733289
5112.000000	36.785760
5110.000000	36.840908
5108.000000	36.897409
5106.000000	36.953409
5104.000000	37.008254
5102.000000	37.063442
5100.000000	37.118343
5098.000000	37.174061
5096.000000	37.229589
5094.000000	37.285435
5092.000000	37.342153
5090.000000	37.399279
5088.000000	37.454659
5086.000000	37.510048
5084.000000	37.567102
5082.000000	37.625513
5080.000000	37.683185
5078.000000	37.738879
5076.000000	37.793290
5074.000000	37.848565
5072.000000	37.905106
5070.000000	37.961645
5068.000000	38.018851
5066.000000	38.078620
5064.000000	38.137618
5062.000000	38.193937
5060.000000	38.248169
5058.000000	38.303137
5056.000000	38.358144
5054.000000	38.413786
5052.000000	38.470354
5050.000000	38.527122
5048.000000	38.582479
5046.000000	38.637753
5044.000000	38.693039
5042.000000	38.749736
5040.000000	38.806349
5038.000000	38.861103
5036.000000	38.916074
5034.000000	38.974147
5032.000000	39.032297
5030.000000	39.086876
5028.000000	39.140589
5026.000000	39.196551
5024.000000	39.253136
5022.000000	39.310009
5020.000000	39.366211
5018.000000	39.421002
5016.000000	39.475961
5014.000000	39.532564
5012.000000	39.590364
5010.000000	39.648302
5008.000000	39.705859
5006.000000	39.762361
5004.000000	39.816711
5002.000000	39.872517
5000.000000	39.930446
4998.000000	39.990949
4996.000000	40.050611
4994.000000	40.108581
4992.000000	40.164624
4990.000000	40.221798
4988.000000	40.281039
4986.000000	40.340056
4984.000000	40.396865
4982.000000	40.453281
4980.000000	40.511200
4978.000000	40.570886
4976.000000	40.630475
4974.000000	40.689104
4972.000000	40.746311
4970.000000	40.802751
4968.000000	40.859103
4966.000000	40.918400
4964.000000	40.977826
4962.000000	41.033920
4960.000000	41.088471
4958.000000	41.146402
4956.000000	41.205076
4954.000000	41.263361
4952.000000	41.321181
4950.000000	41.378306
4948.000000	41.433757
4946.000000	41.490091
4944.000000	41.547002
4942.000000	41.603741
4940.000000	41.659006
4938.000000	41.714488
4936.000000	41.772389
4934.000000	41.831361
4932.000000	41.886961
4930.000000	41.940908
4928.000000	41.996701
4926.000000	42.053679
4924.000000	42.111275
4922.000000	42.170492
4920.000000	42.229137
4918.000000	42.286155
4916.000000	42.342940
4914.000000	42.400010
4912.000000	42.456641
4910.000000	42.515254
4908.000000	42.574778
4906.000000	42.633047
4904.000000	42.690245
4902.000000	42.749253
4900.000000	42.809139
4898.000000	42.868343
4896.000000	42.926056
4894.000000	42.983003
4892.000000	43.041328
4890.000000	43.102393
4888.000000	43.163612
4886.000000	43.223248
4884.000000	43.282220
4882.000000	43.340590
4880.000000	43.398334
4878.000000	43.457661
4876.000000	43.518320
4874.000000	43.578716
4872.000000	43.637499
4870.000000	43.694969
4868.000000	43.751520
4866.000000	43.809549
4864.000000	43.867825
4862.000000	43.926697
4860.000000	43.985317
4858.000000	44.043991
4856.000000	44.102284
4854.000000	44.160811
4852.000000	44.217800
4850.000000	44.274995
4848.000000	44.333536
4846.000000	44.391856
4844.000000	44.448674
4842.000000	44.506382
4840.000000	44.564751
4838.000000	44.623109
4836.000000	44.680427
4834.000000	44.737158
4832.000000	44.793794
4830.000000	44.850869
4828.000000	44.908874
4826.000000	44.967806
4824.000000	45.026472
4822.000000	45.083202
4820.000000	45.139607
4818.000000	45.197653
4816.000000	45.256511
4814.000000	45.315486
4812.000000	45.374783
4810.000000	45.435506
4808.000000	45.494743
4806.000000	45.553164
4804.000000	45.613337
4802.000000	45.675970
4800.000000	45.737457
4798.000000	45.797192
4796.000000	45.856336
4794.000000	45.916368
4792.000000	45.976861
4790.000000	46.037667
4788.000000	46.097796
4786.000000	46.159056
4784.000000	46.220361
4782.000000	46.279930
4780.000000	46.336632
4778.000000	46.394668
4776.000000	46.453953
4774.000000	46.514226
4772.000000	46.574819
4770.000000	46.635399
4768.000000	46.695340
4766.000000	46.755058
4764.000000	46.812991
4762.000000	46.870297
4760.000000	46.928473
4758.000000	46.988689
4756.000000	47.049348
4754.000000	47.108623
4752.000000	47.164788
4750.000000	47.221514
4748.000000	47.280474
4746.000000	47.339821
4744.000000	47.398027
4742.000000	47.456233
4740.000000	47.514365
4738.000000	47.572479
4736.000000	47.631297
4734.000000	47.691863
4732.000000	47.750810
4730.000000	47.808318
4728.000000	47.866463
4726.000000	47.926403
4724.000000	47.984689
4722.000000	48.043580
4720.000000	48.104450
4718.000000	48.166036
4716.000000	48.225733
4714.000000	48.286643
4712.000000	48.348622
4710.000000	48.410301
4708.000000	48.471481
4706.000000	48.535047
4704.000000	48.600470
4702.000000	48.665136
4700.000000	48.727650
4698.000000	48.789441
4696.000000	48.850004
4694.000000	48.908741
4692.000000	48.969051
4690.000000	49.032266
4688.000000	49.094411
4686.000000	49.155536
4684.000000	49.216872
4682.000000	49.278593
4680.000000	49.339313
4678.000000	49.401099
4676.000000	49.463118
4674.000000	49.525404
4672.000000	49.585833
4670.000000	49.646119
4668.000000	49.707403
4666.000000	49.769556
4664.000000	49.830707
4662.000000	49.891756
4660.000000	49.952760
4658.000000	50.013734
4656.000000	50.073506
4654.000000	50.132917
4652.000000	50.193567
4650.000000	50.256471
4648.000000	50.318927
4646.000000	50.379763
4644.000000	50.439642
4642.000000	50.500443
4640.000000	50.561589
4638.000000	50.622812
4636.000000	50.683640
4634.000000	50.744140
4632.000000	50.803814
4630.000000	50.863632
4628.000000	50.924001
4626.000000	50.986062
4624.000000	51.047678
4622.000000	51.107537
4620.000000	51.168141
4618.000000	51.232601
4616.000000	51.297062
4614.000000	51.359600
4612.000000	51.422380
4610.000000	51.487964
4608.000000	51.553465
4606.000000	51.617787
4604.000000	51.682503
4602.000000	51.749064
4600.000000	51.813572
4598.000000	51.878321
4596.000000	51.944327
4594.000000	52.009587
4592.000000	52.071892
4590.000000	52.135522
4588.000000	52.200503
4586.000000	52.265416
4584.000000	52.328894
4582.000000	52.393009
4580.000000	52.457482
4578.000000	52.522018
4576.000000	52.585603
4574.000000	52.649878
4572.000000	52.714207
4570.000000	52.777631
4568.000000	52.840431
4566.000000	52.904409
4564.000000	52.968692
4562.000000	53.032693
4560.000000	53.095235
4558.000000	53.156525
4556.000000	53.217821
4554.000000	53.279870
4552.000000	53.342283
4550.000000	53.405605
4548.000000	53.468683
4546.000000	53.531060
4544.000000	53.592536
4542.000000	53.654133
4540.000000	53.717064
4538.000000	53.782790
4536.000000	53.847267
4534.000000	53.907829
4532.000000	53.967472
4530.000000	54.031472
4528.000000	54.096906
4526.000000	54.160923
4524.000000	54.224001
4522.000000	54.287453
4520.000000	54.350588
4518.000000	54.414832
4516.000000	54.478677
4514.000000	54.542047
4512.000000	54.606223
4510.000000	54.671631
4508.000000	54.737030
4506.000000	54.802160
4504.000000	54.867518
4502.000000	54.934622
4500.000000	55.002003
4498.000000	55.067773
4496.000000	55.132675
4494.000000	55.198720
4492.000000	55.264134
4490.000000	55.328587
4488.000000	55.393631
4486.000000	55.459914
4484.000000	55.524193
4482.000000	55.586963
4480.000000	55.649875
4478.000000	55.714794
4476.000000	55.780352
4474.000000	55.845325
4472.000000	55.908454
4470.000000	55.969763
4468.000000	56.030771
4466.000000	56.093834
4464.000000	56.156617
4462.000000	56.218350
4460.000000	56.279488
4458.000000	56.341604
4456.000000	56.404420
4454.000000	56.467101
4452.000000	56.527836
4450.000000	56.589936
4448.000000	56.652348
4446.000000	56.714079
4444.000000	56.776737
4442.000000	56.841117
4440.000000	56.903559
4438.000000	56.965524
4436.000000	57.028432
4434.000000	57.091612
4432.000000	57.153753
4430.000000	57.216423
4428.000000	57.280185
4426.000000	57.345116
4424.000000	57.409389
4422.000000	57.473790
4420.000000	57.537937
4418.000000	57.600975
4416.000000	57.663232
4414.000000	57.727091
4412.000000	57.791386
4410.000000	57.855833
4408.000000	57.920097
4406.000000	57.983940
4404.000000	58.047170
4402.000000	58.112558
4400.000000	58.179517
4398.000000	58.244755
4396.000000	58.306844
4394.000000	58.369068
4392.000000	58.431868
4390.000000	58.494044
4388.000000	58.554314
4386.000000	58.615794
4384.000000	58.679085
4382.000000	58.742022
4380.000000	58.803080
4378.000000	58.864572
4376.000000	58.925368
4374.000000	58.984979
4372.000000	59.044305
4370.000000	59.103890
4368.000000	59.163339
4366.000000	59.224115
4364.000000	59.284803
4362.000000	59.345817
4360.000000	59.407948
4358.000000	59.469091
4356.000000	59.529026
4354.000000	59.592048
4352.000000	59.656656
4350.000000	59.720499
4348.000000	59.783057
4346.000000	59.845007
4344.000000	59.907293
4342.000000	59.971541
4340.000000	60.034653
4338.000000	60.096455
4336.000000	60.160615
4334.000000	60.227639
4332.000000	60.293199
4330.000000	60.357545
4328.000000	60.421854
4326.000000	60.486979
4324.000000	60.552615
4322.000000	60.619315
4320.000000	60.686215
4318.000000	60.754417
4316.000000	60.822620
4314.000000	60.889999
4312.000000	60.955719
4310.000000	61.021710
4308.000000	61.088933
4306.000000	61.157366
4304.000000	61.224461
4302.000000	61.289711
4300.000000	61.353613
4298.000000	61.418602
4296.000000	61.485369
4294.000000	61.552056
4292.000000	61.615769
4290.000000	61.678031
4288.000000	61.740743
4286.000000	61.803434
4284.000000	61.864531
4282.000000	61.925626
4280.000000	61.987197
4278.000000	62.048075
4276.000000	62.106106
4274.000000	62.163607
4272.000000	62.222784
4270.000000	62.283402
4268.000000	62.343400
4266.000000	62.403820
4264.000000	62.465658
4262.000000	62.528744
4260.000000	62.589600
4258.000000	62.649366
4256.000000	62.712067
4254.000000	62.777822
4252.000000	62.841052
4250.000000	62.902943
4248.000000	62.967823
4246.000000	63.033512
4244.000000	63.095672
4242.000000	63.158693
4240.000000	63.223768
4238.000000	63.288973
4236.000000	63.353748
4234.000000	63.419108
4232.000000	63.483362
4230.000000	63.548215
4228.000000	63.614004
4226.000000	63.678928
4224.000000	63.741871
4222.000000	63.805078
4220.000000	63.868189
4218.000000	63.933395
4216.000000	63.998602
4214.000000	64.062733
4212.000000	64.128494
4210.000000	64.195720
4208.000000	64.261845
4206.000000	64.329231
4204.000000	64.396938
4202.000000	64.464387
4200.000000	64.531447
4198.000000	64.598410
4196.000000	64.666115
4194.000000	64.735322
4192.000000	64.804110
4190.000000	64.872622
4188.000000	64.940737
4186.000000	65.009346
4184.000000	65.077389
4182.000000	65.143479
4180.000000	65.207336
4178.000000	65.271287
4176.000000	65.335798
4174.000000	65.401458
4172.000000	65.467292
4170.000000	65.532288
4168.000000	65.595576
4166.000000	65.659295
4164.000000	65.723104
4162.000000	65.788260
4160.000000	65.853534
4158.000000	65.916679
4156.000000	65.978674
4154.000000	66.044010
4152.000000	66.110741
4150.000000	66.175545
4148.000000	66.240460
4146.000000	66.307616
4144.000000	66.371844
4142.000000	66.435053
4140.000000	66.500819
4138.000000	66.567458
4136.000000	66.631853
4134.000000	66.696370
4132.000000	66.763696
4130.000000	66.832976
4128.000000	66.899484
4126.000000	66.963247
4124.000000	67.027329
4122.000000	67.093854
4120.000000	67.161610
4118.000000	67.229893
4116.000000	67.295145
4114.000000	67.358119
4112.000000	67.422885
4110.000000	67.489699
4108.000000	67.554949
4106.000000	67.619642
4104.000000	67.684722
4102.000000	67.750076
4100.000000	67.814016
4098.000000	67.877648
4096.000000	67.941369
4094.000000	68.005994
4092.000000	68.071388
4090.000000	68.138582
4088.000000	68.208116
4086.000000	68.279821
4084.000000	68.350980
4082.000000	68.418997
4080.000000	68.483881
4078.000000	68.550243
4076.000000	68.617015
4074.000000	68.682615
4072.000000	68.747644
4070.000000	68.813072
4068.000000	68.879101
4066.000000	68.946016
4064.000000	69.011844
4062.000000	69.076121
4060.000000	69.138923
4058.000000	69.203070
4056.000000	69.269309
4054.000000	69.334988
4052.000000	69.398499
4050.000000	69.462619
4048.000000	69.526253
4046.000000	69.590382
4044.000000	69.657871
4042.000000	69.726139
4040.000000	69.791016
4038.000000	69.855814
4036.000000	69.923638
4034.000000	69.993007
4032.000000	70.060349
4030.000000	70.127106
4028.000000	70.192481
4026.000000	70.258888
4024.000000	70.329878
4022.000000	70.400280
4020.000000	70.467128
4018.000000	70.536196
4016.000000	70.605730
4014.000000	70.672357
4012.000000	70.737913
4010.000000	70.806887
4008.000000	70.878999
4006.000000	70.950288
4004.000000	71.018945
4002.000000	71.087657
4000.000000	71.155716
3998.000000	71.220309
3996.000000	71.282490
3994.000000	71.346733
3992.000000	71.411342
3990.000000	71.476894
3988.000000	71.544011
3986.000000	71.609224
3984.000000	71.671145
3982.000000	71.734736
3980.000000	71.799473
3978.000000	71.859916
3976.000000	71.917270
3974.000000	71.977908
3972.000000	72.042352
3970.000000	72.108050
3968.000000	72.172550
3966.000000	72.234279
3964.000000	72.289675
3962.000000	72.344637
3960.000000	72.406460
3958.000000	72.472430
3956.000000	72.536724
3954.000000	72.594990
3952.000000	72.639371
3950.000000	72.679897
3948.000000	72.739645
3946.000000	72.804967
3944.000000	72.855950
3942.000000	72.924761
3940.000000	73.017825
3938.000000	73.099507
3936.000000	73.146440
3934.000000	73.166802
3932.000000	73.211415
3930.000000	73.302021
3928.000000	73.384459
3926.000000	73.438203
3924.000000	73.498994
3922.000000	73.558483
3920.000000	73.587379
3918.000000	73.629505
3916.000000	73.739471
3914.000000	73.878017
3912.000000	73.979888
3910.000000	74.035201
3908.000000	74.015420
3906.000000	73.907975
3904.000000	73.822985
3902.000000	73.859074
3900.000000	74.011579
3898.000000	74.233808
3896.000000	74.400755
3894.000000	74.408442
3892.000000	74.381639
3890.000000	74.450355
3888.000000	74.470245
3886.000000	74.456822
3884.000000	74.565991
3882.000000	74.684141
3880.000000	74.787205
3878.000000	74.915125
3876.000000	74.961978
3874.000000	74.914264
3872.000000	74.797479
3870.000000	74.771633
3868.000000	74.923180
3866.000000	75.050475
3864.000000	75.146372
3862.000000	75.310198
3860.000000	75.450088
3858.000000	75.318596
3856.000000	74.781107
3854.000000	74.414301
3852.000000	74.789704
3850.000000	75.470438
3848.000000	75.856412
3846.000000	75.933071
3844.000000	75.897404
3842.000000	75.802236
3840.000000	75.598425
3838.000000	75.513006
3836.000000	75.743938
3834.000000	76.040103
3832.000000	76.227812
3830.000000	76.373890
3828.000000	76.476036
3826.000000	76.514121
3824.000000	76.416357
3822.000000	76.286542
3820.000000	76.317827
3818.000000	76.328843
3816.000000	76.389313
3814.000000	76.725810
3812.000000	77.024544
3810.000000	77.008526
3808.000000	76.867712
3806.000000	76.876483
3804.000000	76.848400
3802.000000	76.760581
3800.000000	76.952482
3798.000000	77.255605
3796.000000	77.446331
3794.000000	77.601894
3792.000000	77.720502
3790.000000	77.790558
3788.000000	77.830551
3786.000000	77.861038
3784.000000	77.903182
3782.000000	77.922482
3780.000000	77.937573
3778.000000	78.033822
3776.000000	78.162268
3774.000000	78.210770
3772.000000	78.156827
3770.000000	78.127545
3768.000000	78.201379
3766.000000	78.312993
3764.000000	78.416762
3762.000000	78.446590
3760.000000	78.432817
3758.000000	78.484409
3756.000000	78.457024
3754.000000	78.147939
3752.000000	77.809537
3750.000000	77.845791
3748.000000	78.013517
3746.000000	77.909468
3744.000000	78.026803
3742.000000	78.577861
3740.000000	78.881475
3738.000000	78.766852
3736.000000	78.653046
3734.000000	78.739348
3732.000000	78.975716
3730.000000	79.251438
3728.000000	79.389053
3726.000000	79.429184
3724.000000	79.494884
3722.000000	79.590700
3720.000000	79.708337
3718.000000	79.813833
3716.000000	79.802596
3714.000000	79.617416
3712.000000	79.500576
3710.000000	79.664200
3708.000000	79.948611
3706.000000	80.128980
3704.000000	80.153987
3702.000000	80.162490
3700.000000	80.269963
3698.000000	80.392767
3696.000000	80.446994
3694.000000	80.392787
3692.000000	80.175399
3690.000000	79.927337
3688.000000	80.015953
3686.000000	80.416562
3684.000000	80.698398
3682.000000	80.747841
3680.000000	80.628772
3678.000000	80.311268
3676.000000	80.087150
3674.000000	80.200036
3672.000000	80.287279
3670.000000	80.377278
3668.000000	80.712273
3666.000000	81.025032
3664.000000	81.152138
3662.000000	81.187048
3660.000000	81.146021
3658.000000	81.014806
3656.000000	80.973256
3654.000000	80.997498
3652.000000	80.791566
3650.000000	80.545879
3648.000000	80.670519
3646.000000	81.041862
3644.000000	81.309161
3642.000000	81.409814
3640.000000	81.446049
3638.000000	81.459982
3636.000000	81.444754
3634.000000	81.382324
3632.000000	81.156416
3630.000000	80.864791
3628.000000	80.945793
3626.000000	81.309324
3624.000000	81.490804
3622.000000	81.400777
3620.000000	81.264406
3618.000000	81.293886
3616.000000	81.381531
3614.000000	81.377431
3612.000000	81.327274
3610.000000	81.292004
3608.000000	81.358729
3606.000000	81.509362
3604.000000	81.594772
3602.000000	81.590170
3600.000000	81.569760
3598.000000	81.551154
3596.000000	81.528540
3594.000000	81.536486
3592.000000	81.527289
3590.000000	81.416718
3588.000000	81.328119
3586.000000	81.406165
3584.000000	81.539854
3582.000000	81.597740
3580.000000	81.600882
3578.000000	81.598121
3576.000000	81.596254
3574.000000	81.593502
3572.000000	81.558598
3570.000000	81.441438
3568.000000	81.322851
3566.000000	81.345966
3564.000000	81.451730
3562.000000	81.511539
3560.000000	81.529625
3558.000000	81.541577
3556.000000	81.532700
3554.000000	81.500316
3552.000000	81.481962
3550.000000	81.471559
3548.000000	81.430062
3546.000000	81.396603
3544.000000	81.414570
3542.000000	81.447716
3540.000000	81.451823
3538.000000	81.428742
3536.000000	81.407445
3534.000000	81.394710
3532.000000	81.365736
3530.000000	81.316976
3528.000000	81.268949
3526.000000	81.226284
3524.000000	81.188455
3522.000000	81.166917
3520.000000	81.150786
3518.000000	81.125609
3516.000000	81.093124
3514.000000	81.052331
3512.000000	81.000677
3510.000000	80.950036
3508.000000	80.909375
3506.000000	80.855629
3504.000000	80.785869
3502.000000	80.736129
3500.000000	80.702516
3498.000000	80.655506
3496.000000	80.600177
3494.000000	80.550142
3492.000000	80.498404
3490.000000	80.441454
3488.000000	80.388333
3486.000000	80.345643
3484.000000	80.305360
3482.000000	80.271426
3480.000000	80.257256
3478.000000	80.252106
3476.000000	80.246502
3474.000000	80.250004
3472.000000	80.259634
3470.000000	80.267442
3468.000000	80.281845
3466.000000	80.310782
3464.000000	80.346789
3462.000000	80.384124
3460.000000	80.423074
3458.000000	80.459328
3456.000000	80.491446
3454.000000	80.520704
3452.000000	80.543732
3450.000000	80.552962
3448.000000	80.558338
3446.000000	80.586135
3444.000000	80.632343
3442.000000	80.689689
3440.000000	80.764090
3438.000000	80.851259
3436.000000	80.952946
3434.000000	81.074900
3432.000000	81.212155
3430.000000	81.352967
3428.000000	81.490945
3426.000000	81.624661
3424.000000	81.748194
3422.000000	81.858619
3420.000000	81.966644
3418.000000	82.075653
3416.000000	82.173528
3414.000000	82.256637
3412.000000	82.330415
3410.000000	82.397662
3408.000000	82.458853
3406.000000	82.516857
3404.000000	82.570821
3402.000000	82.620966
3400.000000	82.679474
3398.000000	82.754293
3396.000000	82.835229
3394.000000	82.905277
3392.000000	82.970991
3390.000000	83.046019
3388.000000	83.118676
3386.000000	83.181403
3384.000000	83.239616
3382.000000	83.295142
3380.000000	83.349148
3378.000000	83.402229
3376.000000	83.452936
3374.000000	83.499439
3372.000000	83.540295
3370.000000	83.577215
3368.000000	83.618153
3366.000000	83.666314
3364.000000	83.715017
3362.000000	83.760310
3360.000000	83.805162
3358.000000	83.848907
3356.000000	83.890270
3354.000000	83.931743
3352.000000	83.971766
3350.000000	84.011788
3348.000000	84.054796
3346.000000	84.097047
3344.000000	84.136869
3342.000000	84.177037
3340.000000	84.215571
3338.000000	84.252367
3336.000000	84.293795
3334.000000	84.338633
3332.000000	84.380387
3330.000000	84.417503
3328.000000	84.452140
3326.000000	84.486678
3324.000000	84.525171
3322.000000	84.565800
3320.000000	84.603461
3318.000000	84.638733
3316.000000	84.673386
3314.000000	84.705347
3312.000000	84.735474
3310.000000	84.764247
3308.000000	84.792341
3306.000000	84.824892
3304.000000	84.866103
3302.000000	84.911450
3300.000000	84.950819
3298.000000	84.985374
3296.000000	85.018615
3294.000000	85.050761
3292.000000	85.085676
3290.000000	85.126510
3288.000000	85.169570
3286.000000	85.209059
3284.000000	85.245246
3282.000000	85.283325
3280.000000	85.320987
3278.000000	85.357258
3276.000000	85.394062
3274.000000	85.430222
3272.000000	85.466702
3270.000000	85.509278
3268.000000	85.556375
3266.000000	85.602496
3264.000000	85.646571
3262.000000	85.689321
3260.000000	85.732978
3258.000000	85.775334
3256.000000	85.816796
3254.000000	85.863160
3252.000000	85.914507
3250.000000	85.962564
3248.000000	86.006083
3246.000000	86.051972
3244.000000	86.103998
3242.000000	86.157525
3240.000000	86.206870
3238.000000	86.254338
3236.000000	86.301784
3234.000000	86.348302
3232.000000	86.398125
3230.000000	86.451823
3228.000000	86.503063
3226.000000	86.552533
3224.000000	86.602651
3222.000000	86.649684
3220.000000	86.695028
3218.000000	86.743197
3216.000000	86.792181
3214.000000	86.841620
3212.000000	86.893208
3210.000000	86.945110
3208.000000	87.002627
3206.000000	87.065935
3204.000000	87.132530
3202.000000	87.201244
3200.000000	87.269702
3198.000000	87.339626
3196.000000	87.412482
3194.000000	87.485394
3192.000000	87.559481
3190.000000	87.632493
3188.000000	87.702151
3186.000000	87.771405
3184.000000	87.842016
3182.000000	87.912999
3180.000000	87.981844
3178.000000	88.051119
3176.000000	88.124387
3174.000000	88.198179
3172.000000	88.270728
3170.000000	88.344296
3168.000000	88.418165
3166.000000	88.491032
3164.000000	88.565382
3162.000000	88.643335
3160.000000	88.723958
3158.000000	88.802232
3156.000000	88.876608
3154.000000	88.948101
3152.000000	89.023225
3150.000000	89.105914
3148.000000	89.187964
3146.000000	89.264801
3144.000000	89.339668
3142.000000	89.412219
3140.000000	89.481645
3138.000000	89.551762
3136.000000	89.622932
3134.000000	89.689365
3132.000000	89.755483
3130.000000	89.823752
3128.000000	89.890146
3126.000000	89.952433
3124.000000	90.010440
3122.000000	90.064838
3120.000000	90.116106
3118.000000	90.167776
3116.000000	90.222410
3114.000000	90.280249
3112.000000	90.337108
3110.000000	90.388272
3108.000000	90.440607
3106.000000	90.497433
3104.000000	90.554983
3102.000000	90.614760
3100.000000	90.679204
3098.000000	90.744114
3096.000000	90.808247
3094.000000	90.873712
3092.000000	90.936805
3090.000000	90.996907
3088.000000	91.055463
3086.000000	91.107931
3084.000000	91.156531
3082.000000	91.201138
3080.000000	91.239433
3078.000000	91.277141
3076.000000	91.315036
3074.000000	91.344673
3072.000000	91.361768
3070.000000	91.369507
3068.000000	91.376004
3066.000000	91.393022
3064.000000	91.427910
3062.000000	91.476036
3060.000000	91.528781
3058.000000	91.583203
3056.000000	91.643989
3054.000000	91.707974
3052.000000	91.765765
3050.000000	91.816813
3048.000000	91.864699
3046.000000	91.905314
3044.000000	91.936249
3042.000000	91.962282
3040.000000	91.987896
3038.000000	92.007067
3036.000000	92.015766
3034.000000	92.015897
3032.000000	92.004196
3030.000000	91.971814
3028.000000	91.904238
3026.000000	91.795169
3024.000000	91.665297
3022.000000	91.547014
3020.000000	91.479639
3018.000000	91.508469
3016.000000	91.652164
3014.000000	91.887962
3012.000000	92.170401
3010.000000	92.446393
3008.000000	92.673538
3006.000000	92.837166
3004.000000	92.948795
3002.000000	93.027180
3000.000000	93.085030
2998.000000	93.127335
2996.000000	93.157613
2994.000000	93.177319
2992.000000	93.188932
2990.000000	93.190033
2988.000000	93.174341
2986.000000	93.138587
2984.000000	93.079951
2982.000000	92.993112
2980.000000	92.872313
2978.000000	92.706759
2976.000000	92.480948
2974.000000	92.177887
2972.000000	91.784723
2970.000000	91.302949
2968.000000	90.777997
2966.000000	90.294836
2964.000000	89.939140
2962.000000	89.766066
2960.000000	89.776089
2958.000000	89.915297
2956.000000	90.108199
2954.000000	90.291504
2952.000000	90.431430
2950.000000	90.499021
2948.000000	90.462128
2946.000000	90.298970
2944.000000	90.005190
2942.000000	89.592635
2940.000000	89.098429
2938.000000	88.584177
2936.000000	88.109007
2934.000000	87.686896
2932.000000	87.287327
2930.000000	86.895200
2928.000000	86.562761
2926.000000	86.396745
2924.000000	86.506989
2922.000000	86.929820
2920.000000	87.607010
2918.000000	88.427213
2916.000000	89.283495
2914.000000	90.087826
2912.000000	90.778347
2910.000000	91.330291
2908.000000	91.762036
2906.000000	92.110559
2904.000000	92.411540
2902.000000	92.685630
2900.000000	92.940986
2898.000000	93.181236
2896.000000	93.407606
2894.000000	93.622666
2892.000000	93.828041
2890.000000	94.015633
2888.000000	94.178124
2886.000000	94.306955
2884.000000	94.395144
2882.000000	94.437707
2880.000000	94.435088
2878.000000	94.381523
2876.000000	94.271006
2874.000000	94.095440
2872.000000	93.842525
2870.000000	93.482296
2868.000000	92.992434
2866.000000	92.413022
2864.000000	91.870044
2862.000000	91.515924
2860.000000	91.437879
2858.000000	91.604190
2856.000000	91.908777
2854.000000	92.269942
2852.000000	92.684071
2850.000000	93.191419
2848.000000	93.797098
2846.000000	94.418015
2844.000000	94.959247
2842.000000	95.390876
2840.000000	95.728918
2838.000000	95.999224
2836.000000	96.220538
2834.000000	96.403046
2832.000000	96.558043
2830.000000	96.693124
2828.000000	96.816956
2826.000000	96.928772
2824.000000	97.030012
2822.000000	97.122173
2820.000000	97.206725
2818.000000	97.284535
2816.000000	97.355162
2814.000000	97.419365
2812.000000	97.477876
2810.000000	97.530002
2808.000000	97.581284
2806.000000	97.629621
2804.000000	97.675263
2802.000000	97.719771
2800.000000	97.763565
2798.000000	97.803975
2796.000000	97.843348
2794.000000	97.885021
2792.000000	97.933664
2790.000000	97.990459
2788.000000	98.059221
2786.000000	98.139194
2784.000000	98.223929
2782.000000	98.304895
2780.000000	98.378935
2778.000000	98.445849
2776.000000	98.507682
2774.000000	98.565366
2772.000000	98.620704
2770.000000	98.673352
2768.000000	98.723888
2766.000000	98.771354
2764.000000	98.817278
2762.000000	98.863519
2760.000000	98.910585
2758.000000	98.955368
2756.000000	98.999566
2754.000000	99.040979
2752.000000	99.081016
2750.000000	99.119729
2748.000000	99.155395
2746.000000	99.190344
2744.000000	99.225980
2742.000000	99.259233
2740.000000	99.293061
2738.000000	99.328058
2736.000000	99.364142
2734.000000	99.398826
2732.000000	99.432774
2730.000000	99.465092
2728.000000	99.498056
2726.000000	99.531755
2724.000000	99.563464
2722.000000	99.593663
2720.000000	99.625816
2718.000000	99.656559
2716.000000	99.685729
2714.000000	99.712586
2712.000000	99.737350
2710.000000	99.759928
2708.000000	99.783254
2706.000000	99.809395
2704.000000	99.840214
2702.000000	99.875126
2700.000000	99.916106
2698.000000	99.962692
2696.000000	100.012599
2694.000000	100.059224
2692.000000	100.103602
2690.000000	100.145390
2688.000000	100.185537
2686.000000	100.224472
2684.000000	100.263978
2682.000000	100.301976
2680.000000	100.338454
2678.000000	100.372801
2676.000000	100.405529
2674.000000	100.436319
2672.000000	100.467011
2670.000000	100.496676
2668.000000	100.526082
2666.000000	100.554899
2664.000000	100.584439
2662.000000	100.611764
2660.000000	100.639313
2658.000000	100.670149
2656.000000	100.704964
2654.000000	100.741067
2652.000000	100.780318
2650.000000	100.820799
2648.000000	100.861177
2646.000000	100.899412
2644.000000	100.936739
2642.000000	100.973851
2640.000000	101.011413
2638.000000	101.045160
2636.000000	101.076900
2634.000000	101.107230
2632.000000	101.138175
2630.000000	101.168204
2628.000000	101.198098
2626.000000	101.227289
2624.000000	101.255673
2622.000000	101.283010
2620.000000	101.311211
2618.000000	101.341023
2616.000000	101.368354
2614.000000	101.389884
2612.000000	101.412246
2610.000000	101.434418
2608.000000	101.455486
2606.000000	101.472749
2604.000000	101.489259
2602.000000	101.503594
2600.000000	101.514484
2598.000000	101.522486
2596.000000	101.532449
2594.000000	101.546402
2592.000000	101.567677
2590.000000	101.599301
2588.000000	101.642521
2586.000000	101.693032
2584.000000	101.753067
2582.000000	101.816049
2580.000000	101.877603
2578.000000	101.934985
2576.000000	101.987063
2574.000000	102.034173
2572.000000	102.079397
2570.000000	102.120995
2568.000000	102.158661
2566.000000	102.192656
2564.000000	102.225499
2562.000000	102.255963
2560.000000	102.285708
2558.000000	102.314049
2556.000000	102.341999
2554.000000	102.367587
2552.000000	102.392104
2550.000000	102.416759
2548.000000	102.443843
2546.000000	102.470197
2544.000000	102.495738
2542.000000	102.521477
2540.000000	102.549715
2538.000000	102.577955
2536.000000	102.605354
2534.000000	102.630954
2532.000000	102.657242
2530.000000	102.682740
2528.000000	102.709082
2526.000000	102.734614
2524.000000	102.759716
2522.000000	102.783388
2520.000000	102.807707
2518.000000	102.831108
2516.000000	102.853846
2514.000000	102.876769
2512.000000	102.900312
2510.000000	102.921960
2508.000000	102.943964
2506.000000	102.963051
2504.000000	102.983270
2502.000000	103.005606
2500.000000	103.030155
2498.000000	103.054090
2496.000000	103.078912
2494.000000	103.103868
2492.000000	103.131747
2490.000000	103.159211
2488.000000	103.185421
2486.000000	103.209789
2484.000000	103.236318
2482.000000	103.262968
2480.000000	103.288770
2478.000000	103.310992
2476.000000	103.333975
2474.000000	103.356567
2472.000000	103.377611
2470.000000	103.394930
2468.000000	103.412158
2466.000000	103.429896
2464.000000	103.448190
2462.000000	103.465518
2460.000000	103.482352
2458.000000	103.497427
2456.000000	103.513986
2454.000000	103.530320
2452.000000	103.546433
2450.000000	103.561953
2448.000000	103.580581
2446.000000	103.597572
2444.000000	103.612077
2442.000000	103.626874
2440.000000	103.643551
2438.000000	103.657683
2436.000000	103.671257
2434.000000	103.685314
2432.000000	103.699298
2430.000000	103.710705
2428.000000	103.721999
2426.000000	103.733963
2424.000000	103.750071
2422.000000	103.767793
2420.000000	103.784709
2418.000000	103.797330
2416.000000	103.809534
2414.000000	103.821461
2412.000000	103.832944
2410.000000	103.843092
2408.000000	103.855702
2406.000000	103.870492
2404.000000	103.885714
2402.000000	103.899272
2400.000000	103.915727
2398.000000	103.933272
2396.000000	103.951175
2394.000000	103.968414
2392.000000	103.985767
2390.000000	104.000621
2388.000000	104.015666
2386.000000	104.025097
2384.000000	104.022054
2382.000000	103.997452
2380.000000	103.945676
2378.000000	103.856434
2376.000000	103.731502
2374.000000	103.573242
2372.000000	103.389256
2370.000000	103.192906
2368.000000	103.006120
2366.000000	102.848128
2364.000000	102.744320
2362.000000	102.712563
2360.000000	102.759875
2358.000000	102.884807
2356.000000	103.083618
2354.000000	103.339578
2352.000000	103.625143
2350.000000	103.834296
2348.000000	103.827293
2346.000000	103.647194
2344.000000	103.452261
2342.000000	103.310258
2340.000000	103.229343
2338.000000	103.194443
2336.000000	103.194232
2334.000000	103.220287
2332.000000	103.270686
2330.000000	103.340598
2328.000000	103.427459
2326.000000	103.522985
2324.000000	103.621842
2322.000000	103.720562
2320.000000	103.816394
2318.000000	103.901794
2316.000000	103.979113
2314.000000	104.048098
2312.000000	104.109589
2310.000000	104.158984
2308.000000	104.201138
2306.000000	104.237015
2304.000000	104.269137
2302.000000	104.295421
2300.000000	104.315627
2298.000000	104.332815
2296.000000	104.350212
2294.000000	104.365121
2292.000000	104.379100
2290.000000	104.390099
2288.000000	104.399981
2286.000000	104.408294
2284.000000	104.414180
2282.000000	104.413892
2280.000000	104.412166
2278.000000	104.408182
2276.000000	104.405375
2274.000000	104.400749
2272.000000	104.395759
2270.000000	104.388118
2268.000000	104.382078
2266.000000	104.377256
2264.000000	104.375289
2262.000000	104.372364
2260.000000	104.370564
2258.000000	104.370594
2256.000000	104.371269
2254.000000	104.369855
2252.000000	104.372436
2250.000000	104.378281
2248.000000	104.388302
2246.000000	104.398803
2244.000000	104.410424
2242.000000	104.421479
2240.000000	104.434432
2238.000000	104.446656
2236.000000	104.461123
2234.000000	104.473817
2232.000000	104.487595
2230.000000	104.502188
2228.000000	104.517866
2226.000000	104.530250
2224.000000	104.539413
2222.000000	104.545774
2220.000000	104.554586
2218.000000	104.562868
2216.000000	104.570738
2214.000000	104.576247
2212.000000	104.582111
2210.000000	104.585650
2208.000000	104.590932
2206.000000	104.595665
2204.000000	104.601039
2202.000000	104.605177
2200.000000	104.610208
2198.000000	104.614067
2196.000000	104.618573
2194.000000	104.620484
2192.000000	104.622965
2190.000000	104.622584
2188.000000	104.622785
2186.000000	104.623328
2184.000000	104.624308
2182.000000	104.623395
2180.000000	104.622910
2178.000000	104.620314
2176.000000	104.616787
2174.000000	104.608528
2172.000000	104.587582
2170.000000	104.563072
2168.000000	104.572908
2166.000000	104.594544
2164.000000	104.603181
2162.000000	104.602898
2160.000000	104.602960
2158.000000	104.601742
2156.000000	104.602000
2154.000000	104.599966
2152.000000	104.598769
2150.000000	104.597202
2148.000000	104.597229
2146.000000	104.596367
2144.000000	104.596128
2142.000000	104.593796
2140.000000	104.593487
2138.000000	104.589733
2136.000000	104.587675
2134.000000	104.589152
2132.000000	104.587852
2130.000000	104.583749
2128.000000	104.584648
2126.000000	104.584358
2124.000000	104.582061
2122.000000	104.583011
2120.000000	104.587320
2118.000000	104.590865
2116.000000	104.595054
2114.000000	104.600642
2112.000000	104.608336
2110.000000	104.618528
2108.000000	104.632895
2106.000000	104.646965
2104.000000	104.659468
2102.000000	104.670063
2100.000000	104.683172
2098.000000	104.696054
2096.000000	104.710606
2094.000000	104.723260
2092.000000	104.736419
2090.000000	104.746765
2088.000000	104.763012
2086.000000	104.777652
2084.000000	104.793861
2082.000000	104.807053
2080.000000	104.823443
2078.000000	104.838917
2076.000000	104.856608
2074.000000	104.871132
2072.000000	104.891090
2070.000000	104.910470
2068.000000	104.927852
2066.000000	104.939188
2064.000000	104.960218
2062.000000	104.987880
2060.000000	105.013154
2058.000000	105.034435
2056.000000	105.057216
2054.000000	105.077600
2052.000000	105.097992
2050.000000	105.115415
2048.000000	105.135466
2046.000000	105.153267
2044.000000	105.170304
2042.000000	105.184757
2040.000000	105.204718
2038.000000	105.221341
2036.000000	105.234836
2034.000000	105.242666
2032.000000	105.241933
2030.000000	105.225740
2028.000000	105.235207
2026.000000	105.269381
2024.000000	105.292317
2022.000000	105.301590
2020.000000	105.301750
2018.000000	105.300113
2016.000000	105.322650
2014.000000	105.356013
2012.000000	105.380452
2010.000000	105.395878
2008.000000	105.411300
2006.000000	105.425026
2004.000000	105.436642
2002.000000	105.443374
2000.000000	105.448686
1998.000000	105.452678
1996.000000	105.454215
1994.000000	105.425448
1992.000000	105.398950
1990.000000	105.416768
1988.000000	105.436208
1986.000000	105.442687
1984.000000	105.440049
1982.000000	105.428012
1980.000000	105.416505
1978.000000	105.402116
1976.000000	105.387619
1974.000000	105.371143
1972.000000	105.353559
1970.000000	105.320925
1968.000000	105.272323
1966.000000	105.253805
1964.000000	105.251021
1962.000000	105.193956
1960.000000	105.072444
1958.000000	105.040463
1956.000000	105.121233
1954.000000	105.150049
1952.000000	105.130638
1950.000000	105.097164
1948.000000	105.075095
1946.000000	105.036799
1944.000000	104.964366
1942.000000	104.928963
1940.000000	104.968970
1938.000000	104.977264
1936.000000	104.956702
1934.000000	104.927958
1932.000000	104.903184
1930.000000	104.873817
1928.000000	104.846093
1926.000000	104.795606
1924.000000	104.717323
1922.000000	104.666733
1920.000000	104.587109
1918.000000	104.486883
1916.000000	104.537827
1914.000000	104.567508
1912.000000	104.511806
1910.000000	104.432458
1908.000000	104.388501
1906.000000	104.353024
1904.000000	104.308168
1902.000000	104.254023
1900.000000	104.208107
1898.000000	104.147966
1896.000000	104.085440
1894.000000	104.051110
1892.000000	104.005414
1890.000000	103.922888
1888.000000	103.941066
1886.000000	103.975454
1884.000000	103.968692
1882.000000	103.949715
1880.000000	103.931371
1878.000000	103.906199
1876.000000	103.883502
1874.000000	103.848478
1872.000000	103.741447
1870.000000	103.533548
1868.000000	103.501461
1866.000000	103.627715
1864.000000	103.687288
1862.000000	103.666919
1860.000000	103.632800
1858.000000	103.597893
1856.000000	103.571284
1854.000000	103.533991
1852.000000	103.496264
1850.000000	103.429670
1848.000000	103.312720
1846.000000	103.017478
1844.000000	102.831159
1842.000000	103.050755
1840.000000	103.190103
1838.000000	103.136368
1836.000000	103.085525
1834.000000	103.019323
1832.000000	102.824498
1830.000000	102.627940
1828.000000	102.642399
1826.000000	102.595896
1824.000000	102.580876
1822.000000	102.631662
1820.000000	102.595173
1818.000000	102.512192
1816.000000	102.449563
1814.000000	102.361906
1812.000000	102.220387
1810.000000	102.118846
1808.000000	102.081975
1806.000000	102.008665
1804.000000	101.858817
1802.000000	101.642417
1800.000000	101.515342
1798.000000	101.483676
1796.000000	101.358161
1794.000000	100.973668
1792.000000	100.742391
1790.000000	100.908099
1788.000000	100.977279
1786.000000	100.802548
1784.000000	100.672813
1782.000000	100.574278
1780.000000	100.466526
1778.000000	100.394339
1776.000000	100.174389
1774.000000	99.650432
1772.000000	99.373900
1770.000000	99.569283
1768.000000	99.665918
1766.000000	99.761333
1764.000000	99.628869
1762.000000	99.361629
1760.000000	99.340774
1758.000000	99.244403
1756.000000	99.106902
1754.000000	98.916444
1752.000000	98.429527
1750.000000	98.226567
1748.000000	98.292134
1746.000000	98.268129
1744.000000	98.114723
1742.000000	97.842972
1740.000000	97.584666
1738.000000	97.519316
1736.000000	96.947073
1734.000000	96.371087
1732.000000	96.862895
1730.000000	97.330929
1728.000000	97.428639
1726.000000	97.401968
1724.000000	97.315122
1722.000000	97.181407
1720.000000	96.640942
1718.000000	95.897426
1716.000000	96.002503
1714.000000	96.497288
1712.000000	96.719295
1710.000000	96.645768
1708.000000	96.405455
1706.000000	96.122368
1704.000000	95.952553
1702.000000	95.256049
1700.000000	94.738169
1698.000000	94.894423
1696.000000	94.818737
1694.000000	95.435194
1692.000000	95.973257
1690.000000	95.916391
1688.000000	95.610096
1686.000000	94.667180
1684.000000	94.300330
1682.000000	95.101348
1680.000000	95.547441
1678.000000	95.417852
1676.000000	94.999819
1674.000000	94.963382
1672.000000	94.963519
1670.000000	94.687069
1668.000000	94.795923
1666.000000	94.971611
1664.000000	94.738613
1662.000000	94.604293
1660.000000	94.713091
1658.000000	94.610702
1656.000000	93.807329
1654.000000	92.346149
1652.000000	92.405059
1650.000000	93.481994
1648.000000	93.370940
1646.000000	93.122229
1644.000000	93.491317
1642.000000	93.683950
1640.000000	93.487647
1638.000000	92.910114
1636.000000	92.237995
1634.000000	92.434676
1632.000000	92.798531
1630.000000	92.615161
1628.000000	92.267789
1626.000000	91.894004
1624.000000	91.356730
1622.000000	90.971890
1620.000000	90.561139
1618.000000	89.691581
1616.000000	89.221404
1614.000000	89.236841
1612.000000	88.770769
1610.000000	88.148200
1608.000000	87.825925
1606.000000	87.850843
1604.000000	88.044349
1602.000000	88.287354
1600.000000	88.522650
1598.000000	88.726006
1596.000000	88.874200
1594.000000	88.990138
1592.000000	89.058138
1590.000000	89.062822
1588.000000	89.023111
1586.000000	88.953676
1584.000000	88.879191
1582.000000	88.828680
1580.000000	88.710749
1578.000000	88.145659
1576.000000	87.737294
1574.000000	88.224121
1572.000000	88.355098
1570.000000	88.021726
1568.000000	88.004671
1566.000000	87.982372
1564.000000	87.698671
1562.000000	86.840522
1560.000000	85.514087
1558.000000	85.489505
1556.000000	86.387780
1554.000000	86.932258
1552.000000	87.380041
1550.000000	87.662986
1548.000000	87.840767
1546.000000	87.801770
1544.000000	87.592747
1542.000000	87.167501
1540.000000	86.960946
1538.000000	87.831432
1536.000000	88.690959
1534.000000	88.760808
1532.000000	89.003843
1530.000000	89.230408
1528.000000	89.113902
1526.000000	88.916574
1524.000000	88.655381
1522.000000	88.168130
1520.000000	88.204694
1518.000000	88.378869
1516.000000	88.277788
1514.000000	88.184046
1512.000000	87.990636
1510.000000	87.568688
1508.000000	86.545915
1506.000000	85.904561
1504.000000	85.969830
1502.000000	85.058719
1500.000000	82.630525
1498.000000	79.387764
1496.000000	76.866183
1494.000000	76.411472
1492.000000	77.503796
1490.000000	79.290878
1488.000000	81.223222
1486.000000	82.785247
1484.000000	83.809398
1482.000000	84.326209
1480.000000	84.564269
1478.000000	84.515858
1476.000000	84.223113
1474.000000	83.767423
1472.000000	83.578557
1470.000000	83.727878
1468.000000	83.545258
1466.000000	82.997700
1464.000000	82.610659
1462.000000	82.309494
1460.000000	81.415920
1458.000000	79.897245
1456.000000	78.863698
1454.000000	78.418840
1452.000000	77.908124
1450.000000	77.986444
1448.000000	78.825630
1446.000000	79.789710
1444.000000	80.270481
1442.000000	80.386941
1440.000000	80.305520
1438.000000	79.982700
1436.000000	79.961082
1434.000000	80.357127
1432.000000	80.439335
1430.000000	80.376905
1428.000000	80.401013
1426.000000	80.404557
1424.000000	80.306455
1422.000000	80.087789
1420.000000	79.622548
1418.000000	79.544490
1416.000000	79.677172
1414.000000	79.541820
1412.000000	79.185995
1410.000000	78.657860
1408.000000	77.903845
1406.000000	77.085424
1404.000000	76.615790
1402.000000	76.626471
1400.000000	76.861064
1398.000000	77.296516
1396.000000	77.679062
1394.000000	77.998722
1392.000000	78.315172
1390.000000	78.320907
1388.000000	78.013924
1386.000000	77.728891
1384.000000	77.625432
1382.000000	77.731177
1380.000000	77.830041
1378.000000	77.778661
1376.000000	77.627254
1374.000000	77.493759
1372.000000	77.451883
1370.000000	77.355131
1368.000000	77.196647
1366.000000	77.033905
1364.000000	76.810126
1362.000000	76.628119
1360.000000	76.529214
1358.000000	76.395426
1356.000000	76.200264
1354.000000	75.993739
1352.000000	75.785595
1350.000000	75.570752
1348.000000	75.352816
1346.000000	75.122404
1344.000000	74.872809
1342.000000	74.600810
1340.000000	74.348079
1338.000000	74.207507
1336.000000	74.131996
1334.000000	74.036293
1332.000000	73.886729
1330.000000	73.694257
1328.000000	73.469482
1326.000000	73.227984
1324.000000	72.964714
1322.000000	72.678991
1320.000000	72.372758
1318.000000	72.074855
1316.000000	71.778302
1314.000000	71.466850
1312.000000	71.151166
1310.000000	70.836541
1308.000000	70.510858
1306.000000	70.179627
1304.000000	69.836387
1302.000000	69.491236
1300.000000	69.146378
1298.000000	68.802058
1296.000000	68.446365
1294.000000	68.079440
1292.000000	67.695914
1290.000000	67.301286
1288.000000	66.899898
1286.000000	66.499086
1284.000000	66.085078
1282.000000	65.651662
1280.000000	65.193192
1278.000000	64.705326
1276.000000	64.166302
1274.000000	63.552173
1272.000000	62.824185
1270.000000	61.940326
1268.000000	60.836539
1266.000000	59.517500
1264.000000	58.148276
1262.000000	57.052703
1260.000000	56.505906
1258.000000	56.512126
1256.000000	56.798208
1254.000000	57.035761
1252.000000	57.026081
1250.000000	56.779297
1248.000000	56.382254
1246.000000	55.908620
1244.000000	55.399668
1242.000000	54.885897
1240.000000	54.378543
1238.000000	53.887553
1236.000000	53.407077
1234.000000	52.942176
1232.000000	52.488774
1230.000000	52.042823
1228.000000	51.596027
1226.000000	51.144774
1224.000000	50.683995
1222.000000	50.210252
1220.000000	49.714566
1218.000000	49.203908
1216.000000	48.686604
1214.000000	48.175583
1212.000000	47.684394
1210.000000	47.230088
1208.000000	46.811459
1206.000000	46.413443
1204.000000	46.016340
1202.000000	45.616182
1200.000000	45.218269
1198.000000	44.830087
1196.000000	44.438359
1194.000000	44.032637
1192.000000	43.613348
1190.000000	43.185984
1188.000000	42.745273
1186.000000	42.276888
1184.000000	41.695266
1182.000000	40.966283
1180.000000	40.397810
1178.000000	40.147586
1176.000000	39.914549
1174.000000	39.559207
1172.000000	39.134950
1170.000000	38.685200
1168.000000	38.216586
1166.000000	37.741377
1164.000000	37.270149
1162.000000	36.808630
1160.000000	36.352168
1158.000000	35.917275
1156.000000	35.496310
1154.000000	35.075169
1152.000000	34.646580
1150.000000	34.225752
1148.000000	33.795637
1146.000000	33.355913
1144.000000	32.926959
1142.000000	32.548177
1140.000000	32.234582
1138.000000	31.923111
1136.000000	31.563926
1134.000000	31.168322
1132.000000	30.751198
1130.000000	30.323423
1128.000000	29.896573
1126.000000	29.478488
1124.000000	29.050578
1122.000000	28.610442
1120.000000	28.162079
1118.000000	27.705834
1116.000000	27.239992
1114.000000	26.772090
1112.000000	26.304701
1110.000000	25.841227
1108.000000	25.387135
1106.000000	24.953695
1104.000000	24.536156
1102.000000	24.124722
1100.000000	23.713179
1098.000000	23.307147
1096.000000	22.906821
1094.000000	22.524476
1092.000000	22.158343
1090.000000	21.803977
1088.000000	21.458419
1086.000000	21.122352
1084.000000	20.776355
1082.000000	20.417296
1080.000000	20.077957
1078.000000	19.772871
1076.000000	19.496081
1074.000000	19.261952
1072.000000	19.044857
1070.000000	18.820550
1068.000000	18.587887
1066.000000	18.355939
1064.000000	18.122729
1062.000000	17.890374
1060.000000	17.644587
1058.000000	17.357659
1056.000000	16.968358
1054.000000	16.455178
1052.000000	15.947083
1050.000000	15.647994
1048.000000	15.611989
1046.000000	15.689655
1044.000000	15.689786
1042.000000	15.574238
1040.000000	15.388122
1038.000000	15.175132
1036.000000	14.948770
1034.000000	14.711609
1032.000000	14.464325
1030.000000	14.207282
1028.000000	13.938953
1026.000000	13.669964
1024.000000	13.399919
1022.000000	13.134567
1020.000000	12.881297
1018.000000	12.646426
1016.000000	12.429993
1014.000000	12.240838
1012.000000	12.069281
1010.000000	11.904299
1008.000000	11.736018
1006.000000	11.560770
1004.000000	11.369356
1002.000000	11.157894
1000.000000	10.928394
