PE IR       SUBTECH     SPECTRUM    ASCII       PEDS        4.00        
   -1
TE109A_038_80K_after_105K_BG.ASC
20/04/21
14:48:04.00
20/04/21
14:48:04.00
Administrator
TE109A, Tuesday, April 21 2020, 038.
1000.000000
#HDR
-1
-1
#GR
cm-1
EGY
1.0
0.0
6000.000000
-2.000000
2501
8
105.421683
10.948928
#DATA
6000.000000	16.610746
5998.000000	16.641786
5996.000000	16.672197
5994.000000	16.705742
5992.000000	16.740048
5990.000000	16.773262
5988.000000	16.805806
5986.000000	16.837919
5984.000000	16.872088
5982.000000	16.905726
5980.000000	16.937078
5978.000000	16.969113
5976.000000	17.003652
5974.000000	17.040381
5972.000000	17.074519
5970.000000	17.107508
5968.000000	17.140278
5966.000000	17.174412
5964.000000	17.209076
5962.000000	17.242145
5960.000000	17.275701
5958.000000	17.310547
5956.000000	17.345607
5954.000000	17.380791
5952.000000	17.413331
5950.000000	17.446655
5948.000000	17.480404
5946.000000	17.514329
5944.000000	17.548002
5942.000000	17.581285
5940.000000	17.615622
5938.000000	17.650772
5936.000000	17.684609
5934.000000	17.720053
5932.000000	17.753715
5930.000000	17.787779
5928.000000	17.822069
5926.000000	17.856949
5924.000000	17.892503
5922.000000	17.926632
5920.000000	17.960397
5918.000000	17.995398
5916.000000	18.032620
5914.000000	18.070701
5912.000000	18.106726
5910.000000	18.141617
5908.000000	18.177551
5906.000000	18.215583
5904.000000	18.252603
5902.000000	18.288788
5900.000000	18.323812
5898.000000	18.360393
5896.000000	18.397277
5894.000000	18.433724
5892.000000	18.469475
5890.000000	18.504753
5888.000000	18.540739
5886.000000	18.577956
5884.000000	18.614844
5882.000000	18.651660
5880.000000	18.686735
5878.000000	18.723115
5876.000000	18.759925
5874.000000	18.796853
5872.000000	18.833741
5870.000000	18.870657
5868.000000	18.907351
5866.000000	18.943405
5864.000000	18.978894
5862.000000	19.015510
5860.000000	19.053758
5858.000000	19.091215
5856.000000	19.128361
5854.000000	19.165348
5852.000000	19.203347
5850.000000	19.242968
5848.000000	19.282869
5846.000000	19.323390
5844.000000	19.362847
5842.000000	19.404166
5840.000000	19.445538
5838.000000	19.487051
5836.000000	19.528973
5834.000000	19.570509
5832.000000	19.613031
5830.000000	19.654529
5828.000000	19.695141
5826.000000	19.737489
5824.000000	19.778415
5822.000000	19.819269
5820.000000	19.859317
5818.000000	19.899265
5816.000000	19.939517
5814.000000	19.979582
5812.000000	20.018601
5810.000000	20.059811
5808.000000	20.100739
5806.000000	20.142468
5804.000000	20.183415
5802.000000	20.224000
5800.000000	20.264728
5798.000000	20.306616
5796.000000	20.348418
5794.000000	20.390330
5792.000000	20.432084
5790.000000	20.473634
5788.000000	20.514549
5786.000000	20.555143
5784.000000	20.594395
5782.000000	20.634776
5780.000000	20.675198
5778.000000	20.716514
5776.000000	20.758437
5774.000000	20.801765
5772.000000	20.846014
5770.000000	20.887786
5768.000000	20.927457
5766.000000	20.968009
5764.000000	21.011370
5762.000000	21.055472
5760.000000	21.098223
5758.000000	21.138762
5756.000000	21.179007
5754.000000	21.220512
5752.000000	21.262196
5750.000000	21.304079
5748.000000	21.345563
5746.000000	21.387806
5744.000000	21.430067
5742.000000	21.472099
5740.000000	21.513954
5738.000000	21.555062
5736.000000	21.594703
5734.000000	21.634372
5732.000000	21.674880
5730.000000	21.715936
5728.000000	21.756051
5726.000000	21.795957
5724.000000	21.836392
5722.000000	21.878562
5720.000000	21.921848
5718.000000	21.965506
5716.000000	22.007921
5714.000000	22.052915
5712.000000	22.097849
5710.000000	22.140253
5708.000000	22.180953
5706.000000	22.223531
5704.000000	22.268468
5702.000000	22.314760
5700.000000	22.360735
5698.000000	22.407575
5696.000000	22.451073
5694.000000	22.494379
5692.000000	22.539140
5690.000000	22.585534
5688.000000	22.631249
5686.000000	22.676527
5684.000000	22.721506
5682.000000	22.766752
5680.000000	22.811783
5678.000000	22.857712
5676.000000	22.902701
5674.000000	22.947795
5672.000000	22.993652
5670.000000	23.039965
5668.000000	23.086439
5666.000000	23.132681
5664.000000	23.177464
5662.000000	23.222419
5660.000000	23.266200
5658.000000	23.311251
5656.000000	23.356280
5654.000000	23.402495
5652.000000	23.449434
5650.000000	23.495825
5648.000000	23.541858
5646.000000	23.588151
5644.000000	23.632962
5642.000000	23.677850
5640.000000	23.722018
5638.000000	23.767991
5636.000000	23.814539
5634.000000	23.860585
5632.000000	23.903771
5630.000000	23.946241
5628.000000	23.991403
5626.000000	24.039036
5624.000000	24.086345
5622.000000	24.132284
5620.000000	24.178303
5618.000000	24.224696
5616.000000	24.269925
5614.000000	24.314924
5612.000000	24.358977
5610.000000	24.403909
5608.000000	24.450024
5606.000000	24.496701
5604.000000	24.542407
5602.000000	24.587713
5600.000000	24.633470
5598.000000	24.680208
5596.000000	24.726572
5594.000000	24.773614
5592.000000	24.819443
5590.000000	24.865821
5588.000000	24.912211
5586.000000	24.959929
5584.000000	25.007384
5582.000000	25.054784
5580.000000	25.101621
5578.000000	25.149721
5576.000000	25.197733
5574.000000	25.247022
5572.000000	25.294960
5570.000000	25.340774
5568.000000	25.386215
5566.000000	25.433331
5564.000000	25.481851
5562.000000	25.530446
5560.000000	25.577466
5558.000000	25.625060
5556.000000	25.672754
5554.000000	25.721334
5552.000000	25.769618
5550.000000	25.817701
5548.000000	25.865025
5546.000000	25.913199
5544.000000	25.960648
5542.000000	26.007885
5540.000000	26.054248
5538.000000	26.100810
5536.000000	26.146861
5534.000000	26.195306
5532.000000	26.244265
5530.000000	26.293132
5528.000000	26.341481
5526.000000	26.389468
5524.000000	26.436195
5522.000000	26.482313
5520.000000	26.528778
5518.000000	26.576821
5516.000000	26.624282
5514.000000	26.673352
5512.000000	26.720899
5510.000000	26.766002
5508.000000	26.810838
5506.000000	26.860362
5504.000000	26.911612
5502.000000	26.960241
5500.000000	27.007171
5498.000000	27.053870
5496.000000	27.098200
5494.000000	27.142144
5492.000000	27.188294
5490.000000	27.240093
5488.000000	27.292858
5486.000000	27.346409
5484.000000	27.399264
5482.000000	27.449593
5480.000000	27.492601
5478.000000	27.531153
5476.000000	27.574867
5474.000000	27.628227
5472.000000	27.685222
5470.000000	27.737332
5468.000000	27.784862
5466.000000	27.831494
5464.000000	27.876344
5462.000000	27.923039
5460.000000	27.972891
5458.000000	28.027408
5456.000000	28.082170
5454.000000	28.132725
5452.000000	28.178847
5450.000000	28.221174
5448.000000	28.263369
5446.000000	28.309311
5444.000000	28.356975
5442.000000	28.408893
5440.000000	28.460677
5438.000000	28.509800
5436.000000	28.556520
5434.000000	28.603597
5432.000000	28.650033
5430.000000	28.697345
5428.000000	28.750534
5426.000000	28.812791
5424.000000	28.874296
5422.000000	28.929232
5420.000000	28.976880
5418.000000	29.015034
5416.000000	29.046146
5414.000000	29.081455
5412.000000	29.130082
5410.000000	29.191931
5408.000000	29.255866
5406.000000	29.314627
5404.000000	29.366834
5402.000000	29.416690
5400.000000	29.463544
5398.000000	29.503012
5396.000000	29.539428
5394.000000	29.586757
5392.000000	29.646780
5390.000000	29.706910
5388.000000	29.756308
5386.000000	29.804889
5384.000000	29.860052
5382.000000	29.915509
5380.000000	29.958015
5378.000000	29.996263
5376.000000	30.044220
5374.000000	30.106977
5372.000000	30.171217
5370.000000	30.228641
5368.000000	30.277783
5366.000000	30.324628
5364.000000	30.374172
5362.000000	30.428653
5360.000000	30.482714
5358.000000	30.527549
5356.000000	30.563497
5354.000000	30.605113
5352.000000	30.657427
5350.000000	30.712749
5348.000000	30.755297
5346.000000	30.796740
5344.000000	30.846217
5342.000000	30.897317
5340.000000	30.944547
5338.000000	30.995868
5336.000000	31.056715
5334.000000	31.117147
5332.000000	31.168662
5330.000000	31.216491
5328.000000	31.268396
5326.000000	31.326141
5324.000000	31.385909
5322.000000	31.442336
5320.000000	31.493402
5318.000000	31.541920
5316.000000	31.590299
5314.000000	31.642779
5312.000000	31.693844
5310.000000	31.739294
5308.000000	31.784397
5306.000000	31.836116
5304.000000	31.892014
5302.000000	31.945496
5300.000000	31.997059
5298.000000	32.051104
5296.000000	32.104787
5294.000000	32.151236
5292.000000	32.193432
5290.000000	32.240799
5288.000000	32.295766
5286.000000	32.353678
5284.000000	32.408900
5282.000000	32.463523
5280.000000	32.516977
5278.000000	32.571725
5276.000000	32.626355
5274.000000	32.679041
5272.000000	32.728610
5270.000000	32.776385
5268.000000	32.818984
5266.000000	32.859085
5264.000000	32.905802
5262.000000	32.966262
5260.000000	33.029552
5258.000000	33.082022
5256.000000	33.128480
5254.000000	33.179619
5252.000000	33.230103
5250.000000	33.276087
5248.000000	33.322595
5246.000000	33.377775
5244.000000	33.438897
5242.000000	33.500423
5240.000000	33.559418
5238.000000	33.613267
5236.000000	33.662587
5234.000000	33.710537
5232.000000	33.758887
5230.000000	33.807079
5228.000000	33.851899
5226.000000	33.901072
5224.000000	33.959020
5222.000000	34.020468
5220.000000	34.077222
5218.000000	34.131251
5216.000000	34.185980
5214.000000	34.239084
5212.000000	34.284671
5210.000000	34.321776
5208.000000	34.361394
5206.000000	34.417733
5204.000000	34.485264
5202.000000	34.549237
5200.000000	34.602180
5198.000000	34.653061
5196.000000	34.707154
5194.000000	34.764155
5192.000000	34.819445
5190.000000	34.872005
5188.000000	34.923105
5186.000000	34.975788
5184.000000	35.031242
5182.000000	35.089669
5180.000000	35.146561
5178.000000	35.201377
5176.000000	35.255755
5174.000000	35.311598
5172.000000	35.366602
5170.000000	35.420770
5168.000000	35.474275
5166.000000	35.528600
5164.000000	35.582589
5162.000000	35.637000
5160.000000	35.690989
5158.000000	35.744921
5156.000000	35.799874
5154.000000	35.855649
5152.000000	35.911293
5150.000000	35.966904
5148.000000	36.021714
5146.000000	36.076174
5144.000000	36.129564
5142.000000	36.183831
5140.000000	36.238248
5138.000000	36.293116
5136.000000	36.347227
5134.000000	36.400767
5132.000000	36.453612
5130.000000	36.508349
5128.000000	36.563507
5126.000000	36.618265
5124.000000	36.670994
5122.000000	36.723944
5120.000000	36.777529
5118.000000	36.832420
5116.000000	36.887565
5114.000000	36.942186
5112.000000	36.996132
5110.000000	37.052097
5108.000000	37.108076
5106.000000	37.163807
5104.000000	37.218459
5102.000000	37.274468
5100.000000	37.331533
5098.000000	37.388391
5096.000000	37.443239
5094.000000	37.497981
5092.000000	37.553809
5090.000000	37.610836
5088.000000	37.666839
5086.000000	37.723931
5084.000000	37.780649
5082.000000	37.837139
5080.000000	37.893257
5078.000000	37.950750
5076.000000	38.008881
5074.000000	38.066024
5072.000000	38.121633
5070.000000	38.176218
5068.000000	38.231633
5066.000000	38.289399
5064.000000	38.347405
5062.000000	38.404458
5060.000000	38.459673
5058.000000	38.516665
5056.000000	38.574092
5054.000000	38.630956
5052.000000	38.686053
5050.000000	38.740744
5048.000000	38.795334
5046.000000	38.852910
5044.000000	38.911241
5042.000000	38.967045
5040.000000	39.020503
5038.000000	39.076067
5036.000000	39.132387
5034.000000	39.188163
5032.000000	39.243674
5030.000000	39.300181
5028.000000	39.356101
5026.000000	39.411852
5024.000000	39.467733
5022.000000	39.523428
5020.000000	39.579520
5018.000000	39.637557
5016.000000	39.696135
5014.000000	39.753600
5012.000000	39.809491
5010.000000	39.865840
5008.000000	39.922438
5006.000000	39.979818
5004.000000	40.037351
5002.000000	40.095420
5000.000000	40.152596
4998.000000	40.209573
4996.000000	40.266970
4994.000000	40.326549
4992.000000	40.385137
4990.000000	40.443195
4988.000000	40.502347
4986.000000	40.562737
4984.000000	40.621987
4982.000000	40.678750
4980.000000	40.733997
4978.000000	40.791273
4976.000000	40.850520
4974.000000	40.910573
4972.000000	40.968023
4970.000000	41.023712
4968.000000	41.079412
4966.000000	41.138494
4964.000000	41.197903
4962.000000	41.254939
4960.000000	41.309954
4958.000000	41.367398
4956.000000	41.425707
4954.000000	41.484052
4952.000000	41.541461
4950.000000	41.599419
4948.000000	41.656813
4946.000000	41.714644
4944.000000	41.772477
4942.000000	41.828693
4940.000000	41.883192
4938.000000	41.939448
4936.000000	41.997990
4934.000000	42.056451
4932.000000	42.111606
4930.000000	42.165652
4928.000000	42.220988
4926.000000	42.279019
4924.000000	42.337741
4922.000000	42.396237
4920.000000	42.453466
4918.000000	42.510265
4916.000000	42.566431
4914.000000	42.622533
4912.000000	42.679314
4910.000000	42.737904
4908.000000	42.797243
4906.000000	42.857032
4904.000000	42.916629
4902.000000	42.976047
4900.000000	43.036361
4898.000000	43.096414
4896.000000	43.154351
4894.000000	43.212298
4892.000000	43.272825
4890.000000	43.334770
4888.000000	43.393440
4886.000000	43.450284
4884.000000	43.507502
4882.000000	43.566664
4880.000000	43.626440
4878.000000	43.687381
4876.000000	43.747216
4874.000000	43.805832
4872.000000	43.864151
4870.000000	43.923500
4868.000000	43.982160
4866.000000	44.041294
4864.000000	44.100014
4862.000000	44.158972
4860.000000	44.217199
4858.000000	44.275498
4856.000000	44.333536
4854.000000	44.391054
4852.000000	44.447118
4850.000000	44.504307
4848.000000	44.562965
4846.000000	44.621360
4844.000000	44.678312
4842.000000	44.736253
4840.000000	44.793684
4838.000000	44.851074
4836.000000	44.909011
4834.000000	44.968061
4832.000000	45.025482
4830.000000	45.083144
4828.000000	45.141064
4826.000000	45.199996
4824.000000	45.258957
4822.000000	45.318193
4820.000000	45.375286
4818.000000	45.431971
4816.000000	45.489772
4814.000000	45.549548
4812.000000	45.608761
4810.000000	45.668451
4808.000000	45.728960
4806.000000	45.790727
4804.000000	45.850549
4802.000000	45.908857
4800.000000	45.967188
4798.000000	46.026863
4796.000000	46.086279
4794.000000	46.146706
4792.000000	46.207968
4790.000000	46.270173
4788.000000	46.331519
4786.000000	46.392180
4784.000000	46.451106
4782.000000	46.511358
4780.000000	46.573092
4778.000000	46.635052
4776.000000	46.695226
4774.000000	46.755002
4772.000000	46.814681
4770.000000	46.874652
4768.000000	46.934018
4766.000000	46.993307
4764.000000	47.051466
4762.000000	47.109041
4760.000000	47.165792
4758.000000	47.225065
4756.000000	47.285385
4754.000000	47.345781
4752.000000	47.404906
4750.000000	47.464499
4748.000000	47.522054
4746.000000	47.578029
4744.000000	47.633939
4742.000000	47.692110
4740.000000	47.750630
4738.000000	47.809973
4736.000000	47.869624
4734.000000	47.929188
4732.000000	47.986135
4730.000000	48.043480
4728.000000	48.102533
4726.000000	48.162560
4724.000000	48.221792
4722.000000	48.281431
4720.000000	48.340845
4718.000000	48.401376
4716.000000	48.462537
4714.000000	48.524775
4712.000000	48.587996
4710.000000	48.652185
4708.000000	48.714833
4706.000000	48.777750
4704.000000	48.840483
4702.000000	48.903432
4700.000000	48.966196
4698.000000	49.029115
4696.000000	49.091229
4694.000000	49.153855
4692.000000	49.214767
4690.000000	49.274839
4688.000000	49.335338
4686.000000	49.397280
4684.000000	49.457861
4682.000000	49.518962
4680.000000	49.580388
4678.000000	49.642193
4676.000000	49.703411
4674.000000	49.765604
4672.000000	49.827200
4670.000000	49.889403
4668.000000	49.951747
4666.000000	50.014371
4664.000000	50.075762
4662.000000	50.136614
4660.000000	50.196162
4658.000000	50.256633
4656.000000	50.317594
4654.000000	50.379309
4652.000000	50.440407
4650.000000	50.501684
4648.000000	50.562185
4646.000000	50.623223
4644.000000	50.684148
4642.000000	50.744825
4640.000000	50.804511
4638.000000	50.865444
4636.000000	50.926722
4634.000000	50.988796
4632.000000	51.050788
4630.000000	51.112517
4628.000000	51.172142
4626.000000	51.232838
4624.000000	51.295075
4622.000000	51.357950
4620.000000	51.420130
4618.000000	51.482423
4616.000000	51.544020
4614.000000	51.607787
4612.000000	51.674829
4610.000000	51.742082
4608.000000	51.805181
4606.000000	51.867520
4604.000000	51.931323
4602.000000	51.996288
4600.000000	52.061045
4598.000000	52.126199
4596.000000	52.190898
4594.000000	52.257189
4592.000000	52.323373
4590.000000	52.387702
4588.000000	52.451794
4586.000000	52.517885
4584.000000	52.582120
4582.000000	52.644312
4580.000000	52.705931
4578.000000	52.769305
4576.000000	52.833527
4574.000000	52.898104
4572.000000	52.961694
4570.000000	53.027346
4568.000000	53.094167
4566.000000	53.159533
4564.000000	53.221123
4562.000000	53.282921
4560.000000	53.346576
4558.000000	53.411494
4556.000000	53.474762
4554.000000	53.536665
4552.000000	53.597322
4550.000000	53.659713
4548.000000	53.723704
4546.000000	53.786224
4544.000000	53.845873
4542.000000	53.907487
4540.000000	53.970953
4538.000000	54.034161
4536.000000	54.097008
4534.000000	54.160745
4532.000000	54.223291
4530.000000	54.286378
4528.000000	54.350447
4526.000000	54.415254
4524.000000	54.479032
4522.000000	54.543125
4520.000000	54.606809
4518.000000	54.671859
4516.000000	54.738015
4514.000000	54.803450
4512.000000	54.865065
4510.000000	54.928877
4508.000000	54.995915
4506.000000	55.061794
4504.000000	55.126276
4502.000000	55.193645
4500.000000	55.259713
4498.000000	55.324132
4496.000000	55.389632
4494.000000	55.456410
4492.000000	55.521553
4490.000000	55.586453
4488.000000	55.651372
4486.000000	55.716873
4484.000000	55.782192
4482.000000	55.847003
4480.000000	55.910404
4478.000000	55.975181
4476.000000	56.040481
4474.000000	56.104032
4472.000000	56.165819
4470.000000	56.228481
4468.000000	56.289926
4466.000000	56.351876
4464.000000	56.415751
4462.000000	56.479911
4460.000000	56.541117
4458.000000	56.602581
4456.000000	56.665325
4454.000000	56.728386
4452.000000	56.789352
4450.000000	56.851098
4448.000000	56.914738
4446.000000	56.978584
4444.000000	57.040136
4442.000000	57.102469
4440.000000	57.165714
4438.000000	57.228110
4436.000000	57.289955
4434.000000	57.353950
4432.000000	57.416698
4430.000000	57.478737
4428.000000	57.543027
4426.000000	57.609405
4424.000000	57.673820
4422.000000	57.736517
4420.000000	57.798120
4418.000000	57.860700
4416.000000	57.923832
4414.000000	57.988433
4412.000000	58.054215
4410.000000	58.120044
4408.000000	58.185344
4406.000000	58.251622
4404.000000	58.316995
4402.000000	58.380927
4400.000000	58.444596
4398.000000	58.508618
4396.000000	58.571689
4394.000000	58.635223
4392.000000	58.698429
4390.000000	58.760203
4388.000000	58.821934
4386.000000	58.885394
4384.000000	58.948092
4382.000000	59.010299
4380.000000	59.070598
4378.000000	59.129683
4376.000000	59.189008
4374.000000	59.249521
4372.000000	59.309890
4370.000000	59.370874
4368.000000	59.431795
4366.000000	59.493573
4364.000000	59.554246
4362.000000	59.613919
4360.000000	59.674196
4358.000000	59.736377
4356.000000	59.798903
4354.000000	59.862277
4352.000000	59.925230
4350.000000	59.989108
4348.000000	60.053105
4346.000000	60.116709
4344.000000	60.180396
4342.000000	60.244636
4340.000000	60.307210
4338.000000	60.370082
4336.000000	60.433744
4334.000000	60.497404
4332.000000	60.560195
4330.000000	60.624726
4328.000000	60.690767
4326.000000	60.755771
4324.000000	60.819303
4322.000000	60.884993
4320.000000	60.952368
4318.000000	61.020207
4316.000000	61.087936
4314.000000	61.157650
4312.000000	61.226868
4310.000000	61.293708
4308.000000	61.359326
4306.000000	61.426107
4304.000000	61.491804
4302.000000	61.557395
4300.000000	61.623773
4298.000000	61.691268
4296.000000	61.757454
4294.000000	61.822088
4292.000000	61.885561
4290.000000	61.949519
4288.000000	62.013102
4286.000000	62.076356
4284.000000	62.137566
4282.000000	62.197566
4280.000000	62.256747
4278.000000	62.316821
4276.000000	62.377253
4274.000000	62.437938
4272.000000	62.497214
4270.000000	62.556094
4268.000000	62.614328
4266.000000	62.673303
4264.000000	62.734469
4262.000000	62.798121
4260.000000	62.860156
4258.000000	62.921343
4256.000000	62.984014
4254.000000	63.048763
4252.000000	63.112870
4250.000000	63.175899
4248.000000	63.238042
4246.000000	63.302323
4244.000000	63.368092
4242.000000	63.431877
4240.000000	63.493280
4238.000000	63.557905
4236.000000	63.625219
4234.000000	63.692126
4232.000000	63.756620
4230.000000	63.820823
4228.000000	63.885587
4226.000000	63.951329
4224.000000	64.016608
4222.000000	64.081355
4220.000000	64.144160
4218.000000	64.207024
4216.000000	64.271486
4214.000000	64.337803
4212.000000	64.403743
4210.000000	64.469929
4208.000000	64.536145
4206.000000	64.603625
4204.000000	64.671285
4202.000000	64.738717
4200.000000	64.805690
4198.000000	64.872916
4196.000000	64.940339
4194.000000	65.010745
4192.000000	65.082078
4190.000000	65.150523
4188.000000	65.215950
4186.000000	65.282130
4184.000000	65.348465
4182.000000	65.415543
4180.000000	65.483015
4178.000000	65.549064
4176.000000	65.613010
4174.000000	65.677928
4172.000000	65.742604
4170.000000	65.806596
4168.000000	65.870619
4166.000000	65.935933
4164.000000	66.000855
4162.000000	66.064661
4160.000000	66.127756
4158.000000	66.192606
4156.000000	66.257009
4154.000000	66.320825
4152.000000	66.384318
4150.000000	66.448856
4148.000000	66.514153
4146.000000	66.579658
4144.000000	66.644722
4142.000000	66.710824
4140.000000	66.776989
4138.000000	66.843480
4136.000000	66.908578
4134.000000	66.973546
4132.000000	67.039856
4130.000000	67.106706
4128.000000	67.171561
4126.000000	67.236227
4124.000000	67.302342
4122.000000	67.368982
4120.000000	67.435359
4118.000000	67.504263
4116.000000	67.571923
4114.000000	67.637403
4112.000000	67.702644
4110.000000	67.767488
4108.000000	67.831401
4106.000000	67.895695
4104.000000	67.960668
4102.000000	68.027604
4100.000000	68.092298
4098.000000	68.154283
4096.000000	68.216930
4094.000000	68.281009
4092.000000	68.344911
4090.000000	68.412079
4088.000000	68.482780
4086.000000	68.554664
4084.000000	68.623776
4082.000000	68.689954
4080.000000	68.756529
4078.000000	68.825740
4076.000000	68.893380
4074.000000	68.959071
4072.000000	69.024796
4070.000000	69.090943
4068.000000	69.155809
4066.000000	69.221012
4064.000000	69.286004
4062.000000	69.350493
4060.000000	69.414282
4058.000000	69.479163
4056.000000	69.545045
4054.000000	69.610414
4052.000000	69.674698
4050.000000	69.739065
4048.000000	69.800277
4046.000000	69.860005
4044.000000	69.924996
4042.000000	69.995461
4040.000000	70.064407
4038.000000	70.132860
4036.000000	70.200912
4034.000000	70.267637
4032.000000	70.333508
4030.000000	70.399283
4028.000000	70.464977
4026.000000	70.532875
4024.000000	70.602703
4022.000000	70.670680
4020.000000	70.736935
4018.000000	70.806352
4016.000000	70.876343
4014.000000	70.945803
4012.000000	71.013929
4010.000000	71.079825
4008.000000	71.145915
4006.000000	71.215483
4004.000000	71.286391
4002.000000	71.356297
4000.000000	71.423464
3998.000000	71.488364
3996.000000	71.551690
3994.000000	71.614732
3992.000000	71.677366
3990.000000	71.743241
3988.000000	71.811880
3986.000000	71.878439
3984.000000	71.940991
3982.000000	72.003809
3980.000000	72.067008
3978.000000	72.126163
3976.000000	72.182077
3974.000000	72.242830
3972.000000	72.307829
3970.000000	72.373964
3968.000000	72.440801
3966.000000	72.502913
3964.000000	72.554549
3962.000000	72.608305
3960.000000	72.672157
3958.000000	72.738033
3956.000000	72.799404
3954.000000	72.854086
3952.000000	72.894829
3950.000000	72.933014
3948.000000	72.994161
3946.000000	73.060363
3944.000000	73.108445
3942.000000	73.179007
3940.000000	73.279210
3938.000000	73.365364
3936.000000	73.406450
3934.000000	73.412323
3932.000000	73.450504
3930.000000	73.548130
3928.000000	73.636227
3926.000000	73.687536
3924.000000	73.744806
3922.000000	73.800326
3920.000000	73.819658
3918.000000	73.855485
3916.000000	73.974539
3914.000000	74.129171
3912.000000	74.239290
3910.000000	74.294738
3908.000000	74.257950
3906.000000	74.107377
3904.000000	73.981944
3902.000000	74.008160
3900.000000	74.179050
3898.000000	74.438902
3896.000000	74.633662
3894.000000	74.630144
3892.000000	74.581906
3890.000000	74.651339
3888.000000	74.660732
3886.000000	74.626652
3884.000000	74.741726
3882.000000	74.872644
3880.000000	74.989284
3878.000000	75.135548
3876.000000	75.179091
3874.000000	75.104210
3872.000000	74.943480
3870.000000	74.894402
3868.000000	75.066094
3866.000000	75.211101
3864.000000	75.317146
3862.000000	75.505568
3860.000000	75.664165
3858.000000	75.486366
3856.000000	74.803074
3854.000000	74.327650
3852.000000	74.775185
3850.000000	75.610137
3848.000000	76.079342
3846.000000	76.158904
3844.000000	76.100013
3842.000000	75.967605
3840.000000	75.697298
3838.000000	75.571668
3836.000000	75.839156
3834.000000	76.192248
3832.000000	76.412185
3830.000000	76.578501
3828.000000	76.688884
3826.000000	76.720725
3824.000000	76.584719
3822.000000	76.404033
3820.000000	76.423810
3818.000000	76.425179
3816.000000	76.487178
3814.000000	76.888528
3812.000000	77.244343
3810.000000	77.208045
3808.000000	77.012896
3806.000000	77.007390
3804.000000	76.960145
3802.000000	76.834917
3800.000000	77.058356
3798.000000	77.423201
3796.000000	77.648019
3794.000000	77.829510
3792.000000	77.961086
3790.000000	78.029126
3788.000000	78.064467
3786.000000	78.092481
3784.000000	78.131313
3782.000000	78.138332
3780.000000	78.141907
3778.000000	78.247546
3776.000000	78.393741
3774.000000	78.440581
3772.000000	78.356968
3770.000000	78.301566
3768.000000	78.377393
3766.000000	78.503439
3764.000000	78.621929
3762.000000	78.649350
3760.000000	78.617885
3758.000000	78.663587
3756.000000	78.614626
3754.000000	78.215416
3752.000000	77.773740
3750.000000	77.799558
3748.000000	77.997748
3746.000000	77.857695
3744.000000	77.984747
3742.000000	78.656104
3740.000000	79.024702
3738.000000	78.867962
3736.000000	78.710251
3734.000000	78.800175
3732.000000	79.075844
3730.000000	79.403769
3728.000000	79.563016
3726.000000	79.600254
3724.000000	79.666946
3722.000000	79.769691
3720.000000	79.897784
3718.000000	80.011997
3716.000000	79.986133
3714.000000	79.742549
3712.000000	79.580793
3710.000000	79.772996
3708.000000	80.120224
3706.000000	80.334223
3704.000000	80.349887
3702.000000	80.345766
3700.000000	80.466086
3698.000000	80.604423
3696.000000	80.657310
3694.000000	80.578771
3692.000000	80.297856
3690.000000	79.971679
3688.000000	80.064818
3686.000000	80.553736
3684.000000	80.895020
3682.000000	80.945060
3680.000000	80.788235
3678.000000	80.383053
3676.000000	80.088838
3674.000000	80.216708
3672.000000	80.317294
3670.000000	80.418913
3668.000000	80.827334
3666.000000	81.212495
3664.000000	81.362298
3662.000000	81.395148
3660.000000	81.335353
3658.000000	81.161782
3656.000000	81.100033
3654.000000	81.123931
3652.000000	80.861185
3650.000000	80.548159
3648.000000	80.696294
3646.000000	81.152977
3644.000000	81.480707
3642.000000	81.597686
3640.000000	81.634401
3638.000000	81.646062
3636.000000	81.622161
3634.000000	81.538256
3632.000000	81.250817
3630.000000	80.880263
3628.000000	80.972506
3626.000000	81.420477
3624.000000	81.645237
3622.000000	81.531159
3620.000000	81.356239
3618.000000	81.387459
3616.000000	81.492844
3614.000000	81.484233
3612.000000	81.419024
3610.000000	81.372535
3608.000000	81.452710
3606.000000	81.637517
3604.000000	81.741711
3602.000000	81.734384
3600.000000	81.708695
3598.000000	81.686811
3596.000000	81.658994
3594.000000	81.666927
3592.000000	81.655291
3590.000000	81.519005
3588.000000	81.405241
3586.000000	81.498586
3584.000000	81.666193
3582.000000	81.740855
3580.000000	81.745773
3578.000000	81.739761
3576.000000	81.736475
3574.000000	81.735763
3572.000000	81.692972
3570.000000	81.546162
3568.000000	81.398920
3566.000000	81.427406
3564.000000	81.559659
3562.000000	81.636958
3560.000000	81.660535
3558.000000	81.673716
3556.000000	81.662073
3554.000000	81.623467
3552.000000	81.600804
3550.000000	81.587965
3548.000000	81.539624
3546.000000	81.501071
3544.000000	81.525190
3542.000000	81.568067
3540.000000	81.576357
3538.000000	81.552242
3536.000000	81.528511
3534.000000	81.516250
3532.000000	81.486492
3530.000000	81.430605
3528.000000	81.374188
3526.000000	81.328624
3524.000000	81.291533
3522.000000	81.271944
3520.000000	81.258009
3518.000000	81.234199
3516.000000	81.202059
3514.000000	81.159655
3512.000000	81.103148
3510.000000	81.047934
3508.000000	81.005793
3506.000000	80.949059
3504.000000	80.874595
3502.000000	80.823745
3500.000000	80.793123
3498.000000	80.747542
3496.000000	80.690353
3494.000000	80.638882
3492.000000	80.588330
3490.000000	80.530554
3488.000000	80.475289
3486.000000	80.432515
3484.000000	80.391298
3482.000000	80.354691
3480.000000	80.338901
3478.000000	80.335717
3476.000000	80.331874
3474.000000	80.333344
3472.000000	80.341436
3470.000000	80.348456
3468.000000	80.361076
3466.000000	80.391175
3464.000000	80.428591
3462.000000	80.464463
3460.000000	80.503192
3458.000000	80.541314
3456.000000	80.574597
3454.000000	80.603857
3452.000000	80.625685
3450.000000	80.630003
3448.000000	80.629000
3446.000000	80.656119
3444.000000	80.705104
3442.000000	80.762371
3440.000000	80.834979
3438.000000	80.920914
3436.000000	81.021923
3434.000000	81.143169
3432.000000	81.280507
3430.000000	81.424588
3428.000000	81.568154
3426.000000	81.704112
3424.000000	81.824796
3422.000000	81.933105
3420.000000	82.043666
3418.000000	82.155047
3416.000000	82.251882
3414.000000	82.334033
3412.000000	82.408415
3410.000000	82.475695
3408.000000	82.536277
3406.000000	82.592636
3404.000000	82.642353
3402.000000	82.688795
3400.000000	82.746447
3398.000000	82.821310
3396.000000	82.901411
3394.000000	82.971319
3392.000000	83.038844
3390.000000	83.117055
3388.000000	83.191109
3386.000000	83.253110
3384.000000	83.311430
3382.000000	83.367396
3380.000000	83.420975
3378.000000	83.473008
3376.000000	83.523308
3374.000000	83.571225
3372.000000	83.610360
3370.000000	83.642538
3368.000000	83.682051
3366.000000	83.731313
3364.000000	83.782230
3362.000000	83.829429
3360.000000	83.873351
3358.000000	83.915931
3356.000000	83.958570
3354.000000	84.001081
3352.000000	84.039530
3350.000000	84.079296
3348.000000	84.124784
3346.000000	84.167995
3344.000000	84.209716
3342.000000	84.250700
3340.000000	84.286959
3338.000000	84.321101
3336.000000	84.360218
3334.000000	84.404648
3332.000000	84.448064
3330.000000	84.486050
3328.000000	84.519481
3326.000000	84.552690
3324.000000	84.589785
3322.000000	84.627437
3320.000000	84.663339
3318.000000	84.700681
3316.000000	84.736534
3314.000000	84.768987
3312.000000	84.800151
3310.000000	84.827481
3308.000000	84.853039
3306.000000	84.884318
3304.000000	84.926877
3302.000000	84.973453
3300.000000	85.012888
3298.000000	85.046079
3296.000000	85.077398
3294.000000	85.107777
3292.000000	85.141317
3290.000000	85.183656
3288.000000	85.229946
3286.000000	85.271485
3284.000000	85.308392
3282.000000	85.344755
3280.000000	85.380247
3278.000000	85.414216
3276.000000	85.448047
3274.000000	85.481903
3272.000000	85.518572
3270.000000	85.562728
3268.000000	85.611572
3266.000000	85.656663
3264.000000	85.699703
3262.000000	85.742801
3260.000000	85.785428
3258.000000	85.826491
3256.000000	85.867444
3254.000000	85.914826
3252.000000	85.967806
3250.000000	86.015424
3248.000000	86.057761
3246.000000	86.101362
3244.000000	86.152814
3242.000000	86.208292
3240.000000	86.260396
3238.000000	86.309720
3236.000000	86.356432
3234.000000	86.400373
3232.000000	86.450180
3230.000000	86.504743
3228.000000	86.557875
3226.000000	86.610013
3224.000000	86.657855
3222.000000	86.701755
3220.000000	86.747345
3218.000000	86.795698
3216.000000	86.844104
3214.000000	86.893312
3212.000000	86.943677
3210.000000	86.995455
3208.000000	87.054392
3206.000000	87.118370
3204.000000	87.185881
3202.000000	87.255902
3200.000000	87.324013
3198.000000	87.393222
3196.000000	87.467651
3194.000000	87.544568
3192.000000	87.618017
3190.000000	87.688060
3188.000000	87.758326
3186.000000	87.830059
3184.000000	87.904113
3182.000000	87.975379
3180.000000	88.042667
3178.000000	88.112175
3176.000000	88.186742
3174.000000	88.260826
3172.000000	88.334238
3170.000000	88.406241
3168.000000	88.479612
3166.000000	88.555504
3164.000000	88.631219
3162.000000	88.707859
3160.000000	88.787899
3158.000000	88.867451
3156.000000	88.943578
3154.000000	89.015060
3152.000000	89.089211
3150.000000	89.172955
3148.000000	89.255722
3146.000000	89.332215
3144.000000	89.407788
3142.000000	89.479742
3140.000000	89.548484
3138.000000	89.619829
3136.000000	89.690829
3134.000000	89.756012
3132.000000	89.822939
3130.000000	89.891183
3128.000000	89.956023
3126.000000	90.018619
3124.000000	90.077773
3122.000000	90.130709
3120.000000	90.180553
3118.000000	90.231499
3116.000000	90.287616
3114.000000	90.348628
3112.000000	90.407181
3110.000000	90.457959
3108.000000	90.510067
3106.000000	90.569085
3104.000000	90.627682
3102.000000	90.685429
3100.000000	90.748715
3098.000000	90.814653
3096.000000	90.880477
3094.000000	90.947071
3092.000000	91.009829
3090.000000	91.067517
3088.000000	91.126710
3086.000000	91.182609
3084.000000	91.230326
3082.000000	91.272656
3080.000000	91.310622
3078.000000	91.348521
3076.000000	91.389288
3074.000000	91.421158
3072.000000	91.438828
3070.000000	91.447043
3068.000000	91.453171
3066.000000	91.470906
3064.000000	91.505461
3062.000000	91.552339
3060.000000	91.606933
3058.000000	91.664002
3056.000000	91.727163
3054.000000	91.791895
3052.000000	91.847540
3050.000000	91.897835
3048.000000	91.948911
3046.000000	91.991592
3044.000000	92.022041
3042.000000	92.047154
3040.000000	92.071858
3038.000000	92.090392
3036.000000	92.099762
3034.000000	92.099671
3032.000000	92.088416
3030.000000	92.057286
3028.000000	91.989529
3026.000000	91.881422
3024.000000	91.753177
3022.000000	91.635452
3020.000000	91.568977
3018.000000	91.596471
3016.000000	91.739288
3014.000000	91.974958
3012.000000	92.258285
3010.000000	92.537335
3008.000000	92.767081
3006.000000	92.930318
3004.000000	93.043368
3002.000000	93.123945
3000.000000	93.180174
2998.000000	93.220794
2996.000000	93.252083
2994.000000	93.273378
2992.000000	93.286056
2990.000000	93.286599
2988.000000	93.270007
2986.000000	93.235986
2984.000000	93.179000
2982.000000	93.089690
2980.000000	92.966554
2978.000000	92.802597
2976.000000	92.578034
2974.000000	92.273557
2972.000000	91.879209
2970.000000	91.395443
2968.000000	90.868071
2966.000000	90.381233
2964.000000	90.022133
2962.000000	89.849232
2960.000000	89.862358
2958.000000	90.003102
2956.000000	90.195952
2954.000000	90.380692
2952.000000	90.524192
2950.000000	90.595803
2948.000000	90.560914
2946.000000	90.396362
2944.000000	90.101349
2942.000000	89.689734
2940.000000	89.193973
2938.000000	88.677356
2936.000000	88.204262
2934.000000	87.782558
2932.000000	87.382098
2930.000000	86.991073
2928.000000	86.658994
2926.000000	86.490931
2924.000000	86.597389
2922.000000	87.018694
2920.000000	87.697693
2918.000000	88.518926
2916.000000	89.375268
2914.000000	90.182325
2912.000000	90.877214
2910.000000	91.432874
2908.000000	91.866269
2906.000000	92.215851
2904.000000	92.517826
2902.000000	92.792299
2900.000000	93.047824
2898.000000	93.288667
2896.000000	93.517146
2894.000000	93.733316
2892.000000	93.937528
2890.000000	94.124663
2888.000000	94.288568
2886.000000	94.418392
2884.000000	94.506848
2882.000000	94.549133
2880.000000	94.546745
2878.000000	94.495433
2876.000000	94.384115
2874.000000	94.205037
2872.000000	93.949920
2870.000000	93.588622
2868.000000	93.100765
2866.000000	92.525168
2864.000000	91.982676
2862.000000	91.625889
2860.000000	91.546269
2858.000000	91.712108
2856.000000	92.013939
2854.000000	92.372690
2852.000000	92.787076
2850.000000	93.295914
2848.000000	93.902616
2846.000000	94.524647
2844.000000	95.069220
2842.000000	95.507270
2840.000000	95.848824
2838.000000	96.117390
2836.000000	96.339662
2834.000000	96.524534
2832.000000	96.679968
2830.000000	96.816471
2828.000000	96.940339
2826.000000	97.051732
2824.000000	97.154714
2822.000000	97.248684
2820.000000	97.335298
2818.000000	97.413641
2816.000000	97.482485
2814.000000	97.544617
2812.000000	97.604663
2810.000000	97.660774
2808.000000	97.711751
2806.000000	97.759284
2804.000000	97.806594
2802.000000	97.850321
2800.000000	97.891261
2798.000000	97.930017
2796.000000	97.969520
2794.000000	98.012255
2792.000000	98.060447
2790.000000	98.117005
2788.000000	98.186986
2786.000000	98.268284
2784.000000	98.353351
2782.000000	98.433988
2780.000000	98.509488
2778.000000	98.576710
2776.000000	98.637384
2774.000000	98.694962
2772.000000	98.751111
2770.000000	98.803662
2768.000000	98.853501
2766.000000	98.902551
2764.000000	98.952682
2762.000000	98.998337
2760.000000	99.042950
2758.000000	99.087252
2756.000000	99.130387
2754.000000	99.171600
2752.000000	99.211714
2750.000000	99.247833
2748.000000	99.282883
2746.000000	99.320368
2744.000000	99.358598
2742.000000	99.392635
2740.000000	99.426571
2738.000000	99.461471
2736.000000	99.496122
2734.000000	99.530371
2732.000000	99.564419
2730.000000	99.598099
2728.000000	99.632120
2726.000000	99.663302
2724.000000	99.694304
2722.000000	99.724304
2720.000000	99.756720
2718.000000	99.789393
2716.000000	99.820070
2714.000000	99.847600
2712.000000	99.872520
2710.000000	99.894566
2708.000000	99.916684
2706.000000	99.940657
2704.000000	99.970940
2702.000000	100.008447
2700.000000	100.052197
2698.000000	100.098633
2696.000000	100.146636
2694.000000	100.193282
2692.000000	100.237442
2690.000000	100.277466
2688.000000	100.317624
2686.000000	100.359313
2684.000000	100.399593
2682.000000	100.435614
2680.000000	100.470709
2678.000000	100.503584
2676.000000	100.536150
2674.000000	100.566807
2672.000000	100.597155
2670.000000	100.626567
2668.000000	100.656015
2666.000000	100.685101
2664.000000	100.715494
2662.000000	100.745308
2660.000000	100.773350
2658.000000	100.803535
2656.000000	100.838050
2654.000000	100.873663
2652.000000	100.912940
2650.000000	100.952849
2648.000000	100.991667
2646.000000	101.028416
2644.000000	101.068057
2642.000000	101.106194
2640.000000	101.139549
2638.000000	101.173023
2636.000000	101.207426
2634.000000	101.239151
2632.000000	101.270697
2630.000000	101.300343
2628.000000	101.328735
2626.000000	101.356226
2624.000000	101.384351
2622.000000	101.411166
2620.000000	101.438777
2618.000000	101.466001
2616.000000	101.492990
2614.000000	101.516868
2612.000000	101.540311
2610.000000	101.563032
2608.000000	101.584385
2606.000000	101.601276
2604.000000	101.615963
2602.000000	101.626781
2600.000000	101.635850
2598.000000	101.644764
2596.000000	101.656459
2594.000000	101.670616
2592.000000	101.691293
2590.000000	101.721695
2588.000000	101.765541
2586.000000	101.817314
2584.000000	101.874976
2582.000000	101.938146
2580.000000	102.002722
2578.000000	102.059926
2576.000000	102.113770
2574.000000	102.161127
2572.000000	102.202630
2570.000000	102.241548
2568.000000	102.279651
2566.000000	102.313703
2564.000000	102.346390
2562.000000	102.377414
2560.000000	102.406198
2558.000000	102.433193
2556.000000	102.460874
2554.000000	102.486361
2552.000000	102.511670
2550.000000	102.535647
2548.000000	102.561673
2546.000000	102.587735
2544.000000	102.612702
2542.000000	102.637830
2540.000000	102.664539
2538.000000	102.690119
2536.000000	102.718179
2534.000000	102.746504
2532.000000	102.774348
2530.000000	102.798112
2528.000000	102.821129
2526.000000	102.845149
2524.000000	102.869811
2522.000000	102.892919
2520.000000	102.916705
2518.000000	102.940358
2516.000000	102.965297
2514.000000	102.987716
2512.000000	103.010716
2510.000000	103.032905
2508.000000	103.053248
2506.000000	103.071205
2504.000000	103.091346
2502.000000	103.112606
2500.000000	103.133746
2498.000000	103.155881
2496.000000	103.182826
2494.000000	103.211000
2492.000000	103.238788
2490.000000	103.264780
2488.000000	103.290801
2486.000000	103.315067
2484.000000	103.341922
2482.000000	103.368290
2480.000000	103.393228
2478.000000	103.414213
2476.000000	103.435578
2474.000000	103.457034
2472.000000	103.477307
2470.000000	103.494067
2468.000000	103.511680
2466.000000	103.529130
2464.000000	103.547002
2462.000000	103.563694
2460.000000	103.580487
2458.000000	103.595628
2456.000000	103.610921
2454.000000	103.626956
2452.000000	103.645291
2450.000000	103.660223
2448.000000	103.675376
2446.000000	103.690377
2444.000000	103.704947
2442.000000	103.720925
2440.000000	103.739988
2438.000000	103.753300
2436.000000	103.764913
2434.000000	103.778515
2432.000000	103.794464
2430.000000	103.805369
2428.000000	103.814009
2426.000000	103.824869
2424.000000	103.843085
2422.000000	103.860915
2420.000000	103.875503
2418.000000	103.885951
2416.000000	103.897014
2414.000000	103.906980
2412.000000	103.918274
2410.000000	103.930312
2408.000000	103.944333
2406.000000	103.958396
2404.000000	103.972434
2402.000000	103.983670
2400.000000	103.998115
2398.000000	104.015851
2396.000000	104.034676
2394.000000	104.051781
2392.000000	104.068268
2390.000000	104.082861
2388.000000	104.095869
2386.000000	104.100932
2384.000000	104.094853
2382.000000	104.065353
2380.000000	104.003067
2378.000000	103.899699
2376.000000	103.752935
2374.000000	103.562632
2372.000000	103.339542
2370.000000	103.102858
2368.000000	102.880206
2366.000000	102.689832
2364.000000	102.563499
2362.000000	102.521897
2360.000000	102.574380
2358.000000	102.720694
2356.000000	102.955679
2354.000000	103.258210
2352.000000	103.595388
2350.000000	103.842069
2348.000000	103.830605
2346.000000	103.611586
2344.000000	103.376694
2342.000000	103.206958
2340.000000	103.110781
2338.000000	103.068867
2336.000000	103.066777
2334.000000	103.095972
2332.000000	103.154163
2330.000000	103.236833
2328.000000	103.340276
2326.000000	103.452410
2324.000000	103.568553
2322.000000	103.683256
2320.000000	103.794088
2318.000000	103.894813
2316.000000	103.986059
2314.000000	104.065207
2312.000000	104.135664
2310.000000	104.192731
2308.000000	104.240232
2306.000000	104.277944
2304.000000	104.311771
2302.000000	104.338419
2300.000000	104.360737
2298.000000	104.380857
2296.000000	104.398788
2294.000000	104.412172
2292.000000	104.426489
2290.000000	104.439337
2288.000000	104.451293
2286.000000	104.457946
2284.000000	104.462424
2282.000000	104.462271
2280.000000	104.461186
2278.000000	104.456431
2276.000000	104.452296
2274.000000	104.446867
2272.000000	104.443400
2270.000000	104.436355
2268.000000	104.429511
2266.000000	104.424263
2264.000000	104.421919
2262.000000	104.416456
2260.000000	104.412253
2258.000000	104.410953
2256.000000	104.412429
2254.000000	104.412141
2252.000000	104.417427
2250.000000	104.423621
2248.000000	104.429923
2246.000000	104.437309
2244.000000	104.448412
2242.000000	104.459491
2240.000000	104.473820
2238.000000	104.486662
2236.000000	104.499526
2234.000000	104.510811
2232.000000	104.524685
2230.000000	104.535843
2228.000000	104.548377
2226.000000	104.559749
2224.000000	104.570879
2222.000000	104.579780
2220.000000	104.587344
2218.000000	104.591856
2216.000000	104.598503
2214.000000	104.603650
2212.000000	104.608332
2210.000000	104.611898
2208.000000	104.617877
2206.000000	104.623360
2204.000000	104.629704
2202.000000	104.633523
2200.000000	104.637675
2198.000000	104.639295
2196.000000	104.641261
2194.000000	104.641142
2192.000000	104.642070
2190.000000	104.641178
2188.000000	104.642635
2186.000000	104.641569
2184.000000	104.642148
2182.000000	104.641575
2180.000000	104.641025
2178.000000	104.638303
2176.000000	104.634536
2174.000000	104.624628
2172.000000	104.601295
2170.000000	104.573931
2168.000000	104.583532
2166.000000	104.606409
2164.000000	104.617585
2162.000000	104.618782
2160.000000	104.617561
2158.000000	104.614803
2156.000000	104.616300
2154.000000	104.614581
2152.000000	104.612161
2150.000000	104.607915
2148.000000	104.605661
2146.000000	104.601952
2144.000000	104.603111
2142.000000	104.601965
2140.000000	104.598335
2138.000000	104.592674
2136.000000	104.590517
2134.000000	104.590387
2132.000000	104.591287
2130.000000	104.589759
2128.000000	104.588830
2126.000000	104.585492
2124.000000	104.586255
2122.000000	104.588179
2120.000000	104.589337
2118.000000	104.592654
2116.000000	104.596457
2114.000000	104.599819
2112.000000	104.609931
2110.000000	104.621516
2108.000000	104.633917
2106.000000	104.644757
2104.000000	104.657621
2102.000000	104.669465
2100.000000	104.680480
2098.000000	104.689838
2096.000000	104.704111
2094.000000	104.715498
2092.000000	104.727529
2090.000000	104.736951
2088.000000	104.752909
2086.000000	104.767829
2084.000000	104.785097
2082.000000	104.798569
2080.000000	104.816348
2078.000000	104.832493
2076.000000	104.850115
2074.000000	104.863136
2072.000000	104.879776
2070.000000	104.897738
2068.000000	104.916064
2066.000000	104.926571
2064.000000	104.948535
2062.000000	104.974236
2060.000000	104.997102
2058.000000	105.018484
2056.000000	105.041143
2054.000000	105.060100
2052.000000	105.080245
2050.000000	105.099642
2048.000000	105.122284
2046.000000	105.139483
2044.000000	105.152993
2042.000000	105.162791
2040.000000	105.184382
2038.000000	105.204411
2036.000000	105.216922
2034.000000	105.224157
2032.000000	105.224238
2030.000000	105.204672
2028.000000	105.214140
2026.000000	105.251988
2024.000000	105.274820
2022.000000	105.279927
2020.000000	105.279072
2018.000000	105.272166
2016.000000	105.293873
2014.000000	105.332032
2012.000000	105.357698
2010.000000	105.370566
2008.000000	105.382349
2006.000000	105.395636
2004.000000	105.409090
2002.000000	105.414512
2000.000000	105.419185
1998.000000	105.421683
1996.000000	105.420251
1994.000000	105.383838
1992.000000	105.351655
1990.000000	105.375965
1988.000000	105.402692
1986.000000	105.409153
1984.000000	105.408623
1982.000000	105.400147
1980.000000	105.389211
1978.000000	105.375281
1976.000000	105.359294
1974.000000	105.340320
1972.000000	105.322036
1970.000000	105.285673
1968.000000	105.232634
1966.000000	105.211890
1964.000000	105.212455
1962.000000	105.158202
1960.000000	105.035536
1958.000000	105.002637
1956.000000	105.084310
1954.000000	105.112306
1952.000000	105.093288
1950.000000	105.060181
1948.000000	105.035658
1946.000000	104.991284
1944.000000	104.905129
1942.000000	104.866307
1940.000000	104.923978
1938.000000	104.939054
1936.000000	104.917762
1934.000000	104.886795
1932.000000	104.863209
1930.000000	104.835833
1928.000000	104.806238
1926.000000	104.748519
1924.000000	104.659831
1922.000000	104.604450
1920.000000	104.511423
1918.000000	104.395107
1916.000000	104.469307
1914.000000	104.518879
1912.000000	104.461136
1910.000000	104.373835
1908.000000	104.333479
1906.000000	104.304467
1904.000000	104.261994
1902.000000	104.206361
1900.000000	104.158878
1898.000000	104.095563
1896.000000	104.029502
1894.000000	103.994935
1892.000000	103.942785
1890.000000	103.844800
1888.000000	103.873613
1886.000000	103.920839
1884.000000	103.916989
1882.000000	103.899846
1880.000000	103.882294
1878.000000	103.854207
1876.000000	103.833922
1874.000000	103.797053
1872.000000	103.668988
1870.000000	103.415312
1868.000000	103.381523
1866.000000	103.548076
1864.000000	103.630516
1862.000000	103.611652
1860.000000	103.578715
1858.000000	103.544304
1856.000000	103.520043
1854.000000	103.481479
1852.000000	103.442002
1850.000000	103.369446
1848.000000	103.237460
1846.000000	102.883330
1844.000000	102.660538
1842.000000	102.943195
1840.000000	103.130848
1838.000000	103.079240
1836.000000	103.027893
1834.000000	102.957538
1832.000000	102.729935
1830.000000	102.496953
1828.000000	102.524858
1826.000000	102.482908
1824.000000	102.481324
1822.000000	102.559901
1820.000000	102.533472
1818.000000	102.449298
1816.000000	102.385235
1814.000000	102.294148
1812.000000	102.139592
1810.000000	102.032526
1808.000000	102.008165
1806.000000	101.939955
1804.000000	101.779333
1802.000000	101.538949
1800.000000	101.405737
1798.000000	101.390961
1796.000000	101.260555
1794.000000	100.807432
1792.000000	100.548144
1790.000000	100.784774
1788.000000	100.900333
1786.000000	100.710025
1784.000000	100.573566
1782.000000	100.478008
1780.000000	100.373300
1778.000000	100.311030
1776.000000	100.062129
1774.000000	99.430752
1772.000000	99.106089
1770.000000	99.374417
1768.000000	99.520875
1766.000000	99.663195
1764.000000	99.523476
1762.000000	99.213081
1760.000000	99.212757
1758.000000	99.126237
1756.000000	98.991859
1754.000000	98.793545
1752.000000	98.225536
1750.000000	98.011783
1748.000000	98.134696
1746.000000	98.147729
1744.000000	97.999720
1742.000000	97.698421
1740.000000	97.406137
1738.000000	97.354389
1736.000000	96.669520
1734.000000	95.971767
1732.000000	96.599772
1730.000000	97.198932
1728.000000	97.336070
1726.000000	97.320903
1724.000000	97.232530
1722.000000	97.083465
1720.000000	96.425529
1718.000000	95.517451
1716.000000	95.671325
1714.000000	96.311291
1712.000000	96.611514
1710.000000	96.545663
1708.000000	96.270175
1706.000000	95.941807
1704.000000	95.758125
1702.000000	94.907765
1700.000000	94.270170
1698.000000	94.482194
1696.000000	94.403453
1694.000000	95.176203
1692.000000	95.857340
1690.000000	95.803109
1688.000000	95.436745
1686.000000	94.278268
1684.000000	93.833902
1682.000000	94.842949
1680.000000	95.416001
1678.000000	95.269561
1676.000000	94.765658
1674.000000	94.742908
1672.000000	94.766815
1670.000000	94.443696
1668.000000	94.603327
1666.000000	94.850933
1664.000000	94.582819
1662.000000	94.433131
1660.000000	94.594071
1658.000000	94.496800
1656.000000	93.526646
1654.000000	91.730253
1652.000000	91.824701
1650.000000	93.194536
1648.000000	93.084083
1646.000000	92.799104
1644.000000	93.289049
1642.000000	93.563627
1640.000000	93.354182
1638.000000	92.668554
1636.000000	91.865908
1634.000000	92.155660
1632.000000	92.662520
1630.000000	92.488996
1628.000000	92.115860
1626.000000	91.725741
1624.000000	91.156597
1622.000000	90.799999
1620.000000	90.405563
1618.000000	89.409012
1616.000000	88.918619
1614.000000	89.082578
1612.000000	88.677581
1610.000000	88.052390
1608.000000	87.728541
1606.000000	87.760434
1604.000000	87.956097
1602.000000	88.201121
1600.000000	88.440470
1598.000000	88.645858
1596.000000	88.791908
1594.000000	88.907518
1592.000000	88.976063
1590.000000	88.982076
1588.000000	88.945522
1586.000000	88.880542
1584.000000	88.806519
1582.000000	88.754119
1580.000000	88.613275
1578.000000	87.911758
1576.000000	87.412390
1574.000000	88.037949
1572.000000	88.222603
1570.000000	87.832650
1568.000000	87.852325
1566.000000	87.875956
1564.000000	87.579560
1562.000000	86.572409
1560.000000	84.968545
1558.000000	84.961569
1556.000000	86.079029
1554.000000	86.726494
1552.000000	87.238918
1550.000000	87.547389
1548.000000	87.725746
1546.000000	87.636961
1544.000000	87.332906
1542.000000	86.754178
1540.000000	86.449689
1538.000000	87.488269
1536.000000	88.520134
1534.000000	88.572125
1532.000000	88.847179
1530.000000	89.115961
1528.000000	88.966442
1526.000000	88.724941
1524.000000	88.410816
1522.000000	87.820711
1520.000000	87.892810
1518.000000	88.157972
1516.000000	88.101105
1514.000000	88.050659
1512.000000	87.855396
1510.000000	87.367363
1508.000000	86.155344
1506.000000	85.465969
1504.000000	85.745916
1502.000000	84.963760
1500.000000	82.506449
1498.000000	79.196885
1496.000000	76.674637
1494.000000	76.298029
1492.000000	77.389097
1490.000000	79.132189
1488.000000	81.082268
1486.000000	82.689438
1484.000000	83.744527
1482.000000	84.261475
1480.000000	84.501095
1478.000000	84.424662
1476.000000	84.071476
1474.000000	83.534643
1472.000000	83.345612
1470.000000	83.607178
1468.000000	83.471038
1466.000000	82.873634
1464.000000	82.483037
1462.000000	82.226034
1460.000000	81.265378
1458.000000	79.585200
1456.000000	78.565454
1454.000000	78.284475
1452.000000	77.838915
1450.000000	77.910610
1448.000000	78.730083
1446.000000	79.714658
1444.000000	80.215788
1442.000000	80.336885
1440.000000	80.231327
1438.000000	79.819770
1436.000000	79.776518
1434.000000	80.258837
1432.000000	80.364370
1430.000000	80.291324
1428.000000	80.326407
1426.000000	80.337260
1424.000000	80.229429
1422.000000	79.984317
1420.000000	79.441659
1418.000000	79.386266
1416.000000	79.597818
1414.000000	79.492826
1412.000000	79.139718
1410.000000	78.613787
1408.000000	77.858682
1406.000000	77.026957
1404.000000	76.555512
1402.000000	76.574973
1400.000000	76.786466
1398.000000	77.211205
1396.000000	77.581883
1394.000000	77.904386
1392.000000	78.258849
1390.000000	78.263837
1388.000000	77.926056
1386.000000	77.657228
1384.000000	77.583176
1382.000000	77.694063
1380.000000	77.792238
1378.000000	77.735572
1376.000000	77.569102
1374.000000	77.426732
1372.000000	77.403050
1370.000000	77.315124
1368.000000	77.158072
1366.000000	76.996548
1364.000000	76.752411
1362.000000	76.562255
1360.000000	76.481652
1358.000000	76.362115
1356.000000	76.168270
1354.000000	75.961011
1352.000000	75.753732
1350.000000	75.538383
1348.000000	75.320224
1346.000000	75.092894
1344.000000	74.845803
1342.000000	74.565100
1340.000000	74.298816
1338.000000	74.163759
1336.000000	74.098824
1334.000000	74.007015
1332.000000	73.855505
1330.000000	73.664597
1328.000000	73.443762
1326.000000	73.203058
1324.000000	72.938490
1322.000000	72.652055
1320.000000	72.341127
1318.000000	72.040042
1316.000000	71.745952
1314.000000	71.437317
1312.000000	71.125362
1310.000000	70.814737
1308.000000	70.487588
1306.000000	70.155883
1304.000000	69.815466
1302.000000	69.472036
1300.000000	69.128703
1298.000000	68.785107
1296.000000	68.428102
1294.000000	68.059872
1292.000000	67.675279
1290.000000	67.279853
1288.000000	66.877280
1286.000000	66.476284
1284.000000	66.062760
1282.000000	65.634412
1280.000000	65.180224
1278.000000	64.691312
1276.000000	64.150176
1274.000000	63.536727
1272.000000	62.808065
1270.000000	61.923084
1268.000000	60.820312
1266.000000	59.501084
1264.000000	58.128807
1262.000000	57.030463
1260.000000	56.482124
1258.000000	56.486598
1256.000000	56.773221
1254.000000	57.016783
1252.000000	57.014189
1250.000000	56.771344
1248.000000	56.374470
1246.000000	55.901845
1244.000000	55.394220
1242.000000	54.880049
1240.000000	54.371274
1238.000000	53.880019
1236.000000	53.402728
1234.000000	52.940451
1232.000000	52.485891
1230.000000	52.041969
1228.000000	51.594704
1226.000000	51.142889
1224.000000	50.684578
1222.000000	50.214488
1220.000000	49.723053
1218.000000	49.211854
1216.000000	48.690043
1214.000000	48.177549
1212.000000	47.685155
1210.000000	47.231558
1208.000000	46.813764
1206.000000	46.415870
1204.000000	46.019295
1202.000000	45.621278
1200.000000	45.225067
1198.000000	44.837091
1196.000000	44.444351
1194.000000	44.040721
1192.000000	43.623626
1190.000000	43.197279
1188.000000	42.755888
1186.000000	42.284224
1184.000000	41.699708
1182.000000	40.971825
1180.000000	40.405892
1178.000000	40.158957
1176.000000	39.926956
1174.000000	39.570998
1172.000000	39.145188
1170.000000	38.693771
1168.000000	38.224647
1166.000000	37.752767
1164.000000	37.285115
1162.000000	36.823818
1160.000000	36.364446
1158.000000	35.927481
1156.000000	35.506465
1154.000000	35.088201
1152.000000	34.662480
1150.000000	34.242178
1148.000000	33.811464
1146.000000	33.370117
1144.000000	32.939621
1142.000000	32.561927
1140.000000	32.248734
1138.000000	31.935939
1136.000000	31.574228
1134.000000	31.178334
1132.000000	30.764052
1130.000000	30.339971
1128.000000	29.914411
1126.000000	29.492785
1124.000000	29.063780
1122.000000	28.627050
1120.000000	28.177601
1118.000000	27.719357
1116.000000	27.255070
1114.000000	26.789776
1112.000000	26.320175
1110.000000	25.855006
1108.000000	25.398953
1106.000000	24.963715
1104.000000	24.546390
1102.000000	24.137847
1100.000000	23.724873
1098.000000	23.319255
1096.000000	22.923122
1094.000000	22.540377
1092.000000	22.173881
1090.000000	21.821662
1088.000000	21.477742
1086.000000	21.139132
1084.000000	20.788599
1082.000000	20.430686
1080.000000	20.093582
1078.000000	19.788183
1076.000000	19.509010
1074.000000	19.275465
1072.000000	19.060970
1070.000000	18.836882
1068.000000	18.606474
1066.000000	18.375616
1064.000000	18.140436
1062.000000	17.905475
1060.000000	17.657906
1058.000000	17.373788
1056.000000	16.988036
1054.000000	16.475013
1052.000000	15.965556
1050.000000	15.664957
1048.000000	15.628001
1046.000000	15.710037
1044.000000	15.712874
1042.000000	15.594418
1040.000000	15.405826
1038.000000	15.191992
1036.000000	14.966480
1034.000000	14.731342
1032.000000	14.482878
1030.000000	14.225661
1028.000000	13.961602
1026.000000	13.691871
1024.000000	13.417806
1022.000000	13.152070
1020.000000	12.899142
1018.000000	12.665016
1016.000000	12.449822
1014.000000	12.259293
1012.000000	12.089375
1010.000000	11.929623
1008.000000	11.762526
1006.000000	11.584452
1004.000000	11.389412
1002.000000	11.177832
1000.000000	10.948928
