PE IR       SUBTECH     SPECTRUM    ASCII       PEDS        4.00        
   -1
TE109A_072_80K_after_140K_BG.ASC
20/04/21
20:29:35.00
20/04/21
20:29:35.00
Administrator
TE109A, Tuesday, April 21 2020, 072.
1000.000000
#HDR
-1
-1
#GR
cm-1
EGY
1.0
0.0
6000.000000
-2.000000
2501
8
105.421832
10.936083
#DATA
6000.000000	16.389859
5998.000000	16.423772
5996.000000	16.457218
5994.000000	16.489423
5992.000000	16.521422
5990.000000	16.554871
5988.000000	16.587938
5986.000000	16.619904
5984.000000	16.650508
5982.000000	16.682321
5980.000000	16.714341
5978.000000	16.748623
5976.000000	16.784123
5974.000000	16.818710
5972.000000	16.852963
5970.000000	16.886194
5968.000000	16.920200
5966.000000	16.953545
5964.000000	16.986442
5962.000000	17.020394
5960.000000	17.055829
5958.000000	17.091434
5956.000000	17.125417
5954.000000	17.159505
5952.000000	17.193900
5950.000000	17.226977
5948.000000	17.259590
5946.000000	17.292566
5944.000000	17.326342
5942.000000	17.362576
5940.000000	17.397308
5938.000000	17.430890
5936.000000	17.463051
5934.000000	17.496450
5932.000000	17.531511
5930.000000	17.566500
5928.000000	17.600207
5926.000000	17.634666
5924.000000	17.669993
5922.000000	17.704418
5920.000000	17.737961
5918.000000	17.771702
5916.000000	17.806640
5914.000000	17.842848
5912.000000	17.879430
5910.000000	17.916011
5908.000000	17.953175
5906.000000	17.990193
5904.000000	18.028061
5902.000000	18.064441
5900.000000	18.100555
5898.000000	18.138084
5896.000000	18.175223
5894.000000	18.211433
5892.000000	18.247600
5890.000000	18.283999
5888.000000	18.320267
5886.000000	18.355245
5884.000000	18.389020
5882.000000	18.423902
5880.000000	18.459073
5878.000000	18.496084
5876.000000	18.533934
5874.000000	18.571196
5872.000000	18.607707
5870.000000	18.643438
5868.000000	18.679350
5866.000000	18.716775
5864.000000	18.754279
5862.000000	18.791956
5860.000000	18.828958
5858.000000	18.865927
5856.000000	18.904026
5854.000000	18.941788
5852.000000	18.981036
5850.000000	19.021432
5848.000000	19.060264
5846.000000	19.098231
5844.000000	19.137656
5842.000000	19.180473
5840.000000	19.222796
5838.000000	19.262319
5836.000000	19.300773
5834.000000	19.341629
5832.000000	19.383894
5830.000000	19.425607
5828.000000	19.467301
5826.000000	19.510027
5824.000000	19.552651
5822.000000	19.594033
5820.000000	19.634083
5818.000000	19.673532
5816.000000	19.714038
5814.000000	19.755654
5812.000000	19.797110
5810.000000	19.837225
5808.000000	19.876599
5806.000000	19.917040
5804.000000	19.958223
5802.000000	19.999169
5800.000000	20.039410
5798.000000	20.080281
5796.000000	20.121827
5794.000000	20.162631
5792.000000	20.201974
5790.000000	20.241783
5788.000000	20.282947
5786.000000	20.325629
5784.000000	20.366934
5782.000000	20.407148
5780.000000	20.448408
5778.000000	20.489865
5776.000000	20.532210
5774.000000	20.574998
5772.000000	20.618722
5770.000000	20.661071
5768.000000	20.701551
5766.000000	20.742801
5764.000000	20.785268
5762.000000	20.828010
5760.000000	20.868936
5758.000000	20.909840
5756.000000	20.952363
5754.000000	20.995205
5752.000000	21.035877
5750.000000	21.075477
5748.000000	21.117589
5746.000000	21.161594
5744.000000	21.204509
5742.000000	21.246156
5740.000000	21.286825
5738.000000	21.327160
5736.000000	21.366671
5734.000000	21.406496
5732.000000	21.448107
5730.000000	21.488748
5728.000000	21.528349
5726.000000	21.569353
5724.000000	21.611370
5722.000000	21.653712
5720.000000	21.694937
5718.000000	21.736791
5716.000000	21.780181
5714.000000	21.824925
5712.000000	21.868527
5710.000000	21.911013
5708.000000	21.953772
5706.000000	21.996917
5704.000000	22.040686
5702.000000	22.085251
5700.000000	22.131789
5698.000000	22.177573
5696.000000	22.220419
5694.000000	22.263160
5692.000000	22.307752
5690.000000	22.353534
5688.000000	22.398993
5686.000000	22.445116
5684.000000	22.491470
5682.000000	22.537049
5680.000000	22.581216
5678.000000	22.626149
5676.000000	22.671956
5674.000000	22.717469
5672.000000	22.761700
5670.000000	22.805586
5668.000000	22.851315
5666.000000	22.898374
5664.000000	22.945998
5662.000000	22.992643
5660.000000	23.038689
5658.000000	23.084438
5656.000000	23.130390
5654.000000	23.176212
5652.000000	23.220688
5650.000000	23.264160
5648.000000	23.309603
5646.000000	23.356544
5644.000000	23.402017
5642.000000	23.445033
5640.000000	23.488202
5638.000000	23.534159
5636.000000	23.580644
5634.000000	23.626244
5632.000000	23.672251
5630.000000	23.719254
5628.000000	23.765287
5626.000000	23.808650
5624.000000	23.853278
5622.000000	23.900113
5620.000000	23.946256
5618.000000	23.990207
5616.000000	24.033670
5614.000000	24.081249
5612.000000	24.128938
5610.000000	24.175721
5608.000000	24.220133
5606.000000	24.264359
5604.000000	24.308928
5602.000000	24.354302
5600.000000	24.400337
5598.000000	24.446553
5596.000000	24.492321
5594.000000	24.538866
5592.000000	24.586006
5590.000000	24.633002
5588.000000	24.678328
5586.000000	24.723903
5584.000000	24.770961
5582.000000	24.819319
5580.000000	24.866439
5578.000000	24.913063
5576.000000	24.960654
5574.000000	25.008869
5572.000000	25.056969
5570.000000	25.104386
5568.000000	25.152297
5566.000000	25.200934
5564.000000	25.248461
5562.000000	25.296024
5560.000000	25.342891
5558.000000	25.390287
5556.000000	25.437515
5554.000000	25.484365
5552.000000	25.531014
5550.000000	25.578374
5548.000000	25.627213
5546.000000	25.677265
5544.000000	25.726392
5542.000000	25.773368
5540.000000	25.818411
5538.000000	25.863019
5536.000000	25.909426
5534.000000	25.957206
5532.000000	26.006223
5530.000000	26.055738
5528.000000	26.105452
5526.000000	26.153615
5524.000000	26.199893
5522.000000	26.246116
5520.000000	26.291811
5518.000000	26.338056
5516.000000	26.385240
5514.000000	26.433925
5512.000000	26.480120
5510.000000	26.524954
5508.000000	26.572840
5506.000000	26.623537
5504.000000	26.674015
5502.000000	26.722093
5500.000000	26.770183
5498.000000	26.816734
5496.000000	26.859512
5494.000000	26.903225
5492.000000	26.950952
5490.000000	27.002052
5488.000000	27.052293
5486.000000	27.103871
5484.000000	27.157486
5482.000000	27.210321
5480.000000	27.256970
5478.000000	27.298086
5476.000000	27.341629
5474.000000	27.392464
5472.000000	27.447251
5470.000000	27.499645
5468.000000	27.548255
5466.000000	27.595841
5464.000000	27.642194
5462.000000	27.689199
5460.000000	27.739510
5458.000000	27.793784
5456.000000	27.847380
5454.000000	27.896828
5452.000000	27.941519
5450.000000	27.982703
5448.000000	28.023764
5446.000000	28.069735
5444.000000	28.119139
5442.000000	28.173599
5440.000000	28.228165
5438.000000	28.278193
5436.000000	28.323658
5434.000000	28.369409
5432.000000	28.416735
5430.000000	28.464804
5428.000000	28.516211
5426.000000	28.574056
5424.000000	28.631359
5422.000000	28.683352
5420.000000	28.731352
5418.000000	28.773376
5416.000000	28.810150
5414.000000	28.848958
5412.000000	28.896329
5410.000000	28.954223
5408.000000	29.014461
5406.000000	29.071455
5404.000000	29.123263
5402.000000	29.173401
5400.000000	29.221312
5398.000000	29.265043
5396.000000	29.304855
5394.000000	29.351621
5392.000000	29.407347
5390.000000	29.464893
5388.000000	29.514743
5386.000000	29.562886
5384.000000	29.615576
5382.000000	29.668027
5380.000000	29.712119
5378.000000	29.755878
5376.000000	29.808697
5374.000000	29.868790
5372.000000	29.927021
5370.000000	29.981335
5368.000000	30.032487
5366.000000	30.081345
5364.000000	30.129520
5362.000000	30.180992
5360.000000	30.232697
5358.000000	30.279113
5356.000000	30.319718
5354.000000	30.365142
5352.000000	30.419238
5350.000000	30.473985
5348.000000	30.518535
5346.000000	30.560705
5344.000000	30.610685
5342.000000	30.662364
5340.000000	30.709497
5338.000000	30.759231
5336.000000	30.817342
5334.000000	30.877176
5332.000000	30.930230
5330.000000	30.978168
5328.000000	31.027108
5326.000000	31.080606
5324.000000	31.138066
5322.000000	31.193942
5320.000000	31.243856
5318.000000	31.292998
5316.000000	31.343540
5314.000000	31.396273
5312.000000	31.445007
5310.000000	31.490228
5308.000000	31.538103
5306.000000	31.591151
5304.000000	31.645636
5302.000000	31.697512
5300.000000	31.748346
5298.000000	31.800663
5296.000000	31.852616
5294.000000	31.900750
5292.000000	31.946971
5290.000000	31.995917
5288.000000	32.048910
5286.000000	32.104519
5284.000000	32.158498
5282.000000	32.211798
5280.000000	32.265009
5278.000000	32.319932
5276.000000	32.374833
5274.000000	32.427131
5272.000000	32.475800
5270.000000	32.522773
5268.000000	32.566872
5266.000000	32.611194
5264.000000	32.659987
5262.000000	32.717860
5260.000000	32.779545
5258.000000	32.834053
5256.000000	32.881974
5254.000000	32.931250
5252.000000	32.981853
5250.000000	33.030726
5248.000000	33.078764
5246.000000	33.132350
5244.000000	33.191086
5242.000000	33.249810
5240.000000	33.305445
5238.000000	33.357534
5236.000000	33.407449
5234.000000	33.456385
5232.000000	33.506547
5230.000000	33.557774
5228.000000	33.605965
5226.000000	33.654936
5224.000000	33.710015
5222.000000	33.769365
5220.000000	33.824962
5218.000000	33.877860
5216.000000	33.931187
5214.000000	33.982994
5212.000000	34.028937
5210.000000	34.069071
5208.000000	34.111235
5206.000000	34.165511
5204.000000	34.229922
5202.000000	34.292247
5200.000000	34.346077
5198.000000	34.397485
5196.000000	34.451663
5194.000000	34.509033
5192.000000	34.564563
5190.000000	34.618547
5188.000000	34.670085
5186.000000	34.722178
5184.000000	34.776693
5182.000000	34.833302
5180.000000	34.888912
5178.000000	34.944254
5176.000000	34.999747
5174.000000	35.054611
5172.000000	35.107498
5170.000000	35.162016
5168.000000	35.217946
5166.000000	35.272829
5164.000000	35.325583
5162.000000	35.378248
5160.000000	35.431906
5158.000000	35.486457
5156.000000	35.540916
5154.000000	35.596205
5152.000000	35.652003
5150.000000	35.707002
5148.000000	35.760435
5146.000000	35.814175
5144.000000	35.868330
5142.000000	35.922489
5140.000000	35.976722
5138.000000	36.031063
5136.000000	36.084954
5134.000000	36.138761
5132.000000	36.193577
5130.000000	36.248297
5128.000000	36.302250
5126.000000	36.355333
5124.000000	36.408402
5122.000000	36.461589
5120.000000	36.514459
5118.000000	36.567209
5116.000000	36.620972
5114.000000	36.676653
5112.000000	36.732103
5110.000000	36.787336
5108.000000	36.842199
5106.000000	36.897888
5104.000000	36.953396
5102.000000	37.010382
5100.000000	37.065406
5098.000000	37.120485
5096.000000	37.176058
5094.000000	37.233555
5092.000000	37.289993
5090.000000	37.345922
5088.000000	37.402731
5086.000000	37.460592
5084.000000	37.518167
5082.000000	37.573387
5080.000000	37.627025
5078.000000	37.683177
5076.000000	37.741031
5074.000000	37.798706
5072.000000	37.855872
5070.000000	37.913349
5068.000000	37.969169
5066.000000	38.024263
5064.000000	38.080647
5062.000000	38.137445
5060.000000	38.193622
5058.000000	38.250002
5056.000000	38.305987
5054.000000	38.361957
5052.000000	38.417520
5050.000000	38.472341
5048.000000	38.525499
5046.000000	38.581001
5044.000000	38.639246
5042.000000	38.697921
5040.000000	38.754309
5038.000000	38.810018
5036.000000	38.865520
5034.000000	38.921064
5032.000000	38.976240
5030.000000	39.031728
5028.000000	39.086082
5026.000000	39.139901
5024.000000	39.194633
5022.000000	39.251570
5020.000000	39.309531
5018.000000	39.367945
5016.000000	39.425318
5014.000000	39.481501
5012.000000	39.536858
5010.000000	39.592745
5008.000000	39.649635
5006.000000	39.707916
5004.000000	39.766451
5002.000000	39.823786
5000.000000	39.879498
4998.000000	39.936331
4996.000000	39.994922
4994.000000	40.054802
4992.000000	40.114069
4990.000000	40.172504
4988.000000	40.230132
4986.000000	40.288087
4984.000000	40.345962
4982.000000	40.403649
4980.000000	40.461661
4978.000000	40.520443
4976.000000	40.577750
4974.000000	40.634582
4972.000000	40.692183
4970.000000	40.751173
4968.000000	40.808437
4966.000000	40.864771
4964.000000	40.920681
4962.000000	40.978195
4960.000000	41.036280
4958.000000	41.095795
4956.000000	41.155872
4954.000000	41.213581
4952.000000	41.269501
4950.000000	41.326012
4948.000000	41.383250
4946.000000	41.438255
4944.000000	41.493425
4942.000000	41.551052
4940.000000	41.608505
4938.000000	41.664864
4936.000000	41.720461
4934.000000	41.777032
4932.000000	41.833024
4930.000000	41.888873
4928.000000	41.944510
4926.000000	42.000978
4924.000000	42.057206
4922.000000	42.114317
4920.000000	42.172948
4918.000000	42.231589
4916.000000	42.288534
4914.000000	42.345880
4912.000000	42.403639
4910.000000	42.461221
4908.000000	42.518662
4906.000000	42.577429
4904.000000	42.636145
4902.000000	42.696375
4900.000000	42.757849
4898.000000	42.817588
4896.000000	42.873811
4894.000000	42.931408
4892.000000	42.991547
4890.000000	43.051290
4888.000000	43.109126
4886.000000	43.168238
4884.000000	43.228664
4882.000000	43.289159
4880.000000	43.348242
4878.000000	43.407173
4876.000000	43.466079
4874.000000	43.524304
4872.000000	43.581849
4870.000000	43.640187
4868.000000	43.699287
4866.000000	43.757885
4864.000000	43.815494
4862.000000	43.873390
4860.000000	43.931730
4858.000000	43.989698
4856.000000	44.047628
4854.000000	44.105638
4852.000000	44.163597
4850.000000	44.221325
4848.000000	44.279351
4846.000000	44.337449
4844.000000	44.394423
4842.000000	44.452294
4840.000000	44.511431
4838.000000	44.570655
4836.000000	44.627838
4834.000000	44.684288
4832.000000	44.739960
4830.000000	44.796699
4828.000000	44.854549
4826.000000	44.912987
4824.000000	44.971767
4822.000000	45.031076
4820.000000	45.088413
4818.000000	45.145278
4816.000000	45.202722
4814.000000	45.261538
4812.000000	45.321418
4810.000000	45.382480
4808.000000	45.442188
4806.000000	45.500835
4804.000000	45.559542
4802.000000	45.619027
4800.000000	45.678869
4798.000000	45.739870
4796.000000	45.800679
4794.000000	45.860636
4792.000000	45.920112
4790.000000	45.981216
4788.000000	46.042457
4786.000000	46.102765
4784.000000	46.162754
4782.000000	46.223526
4780.000000	46.282997
4778.000000	46.341802
4776.000000	46.401858
4774.000000	46.463021
4772.000000	46.522345
4770.000000	46.580793
4768.000000	46.640033
4766.000000	46.699999
4764.000000	46.758542
4762.000000	46.815987
4760.000000	46.874006
4758.000000	46.934141
4756.000000	46.994314
4754.000000	47.053266
4752.000000	47.111233
4750.000000	47.170000
4748.000000	47.228352
4746.000000	47.287067
4744.000000	47.345113
4742.000000	47.402312
4740.000000	47.458881
4738.000000	47.516155
4736.000000	47.574740
4734.000000	47.635019
4732.000000	47.695031
4730.000000	47.754526
4728.000000	47.813178
4726.000000	47.871840
4724.000000	47.930577
4722.000000	47.990932
4720.000000	48.051559
4718.000000	48.112007
4716.000000	48.171403
4714.000000	48.231838
4712.000000	48.293474
4710.000000	48.355208
4708.000000	48.415634
4706.000000	48.477933
4704.000000	48.542298
4702.000000	48.605880
4700.000000	48.666904
4698.000000	48.728371
4696.000000	48.790463
4694.000000	48.852402
4692.000000	48.914915
4690.000000	48.977591
4688.000000	49.038685
4686.000000	49.099026
4684.000000	49.159821
4682.000000	49.221234
4680.000000	49.282445
4678.000000	49.344812
4676.000000	49.407721
4674.000000	49.469900
4672.000000	49.529356
4670.000000	49.588483
4668.000000	49.649622
4666.000000	49.712764
4664.000000	49.773840
4662.000000	49.834288
4660.000000	49.895653
4658.000000	49.956508
4656.000000	50.015976
4654.000000	50.077326
4652.000000	50.139382
4650.000000	50.200701
4648.000000	50.261076
4646.000000	50.322572
4644.000000	50.384810
4642.000000	50.446072
4640.000000	50.505229
4638.000000	50.565725
4636.000000	50.627526
4634.000000	50.688719
4632.000000	50.748710
4630.000000	50.808587
4628.000000	50.868353
4626.000000	50.929054
4624.000000	50.990378
4622.000000	51.053330
4620.000000	51.117445
4618.000000	51.180941
4616.000000	51.242878
4614.000000	51.305794
4612.000000	51.369458
4610.000000	51.433671
4608.000000	51.498713
4606.000000	51.562774
4604.000000	51.625017
4602.000000	51.689010
4600.000000	51.755055
4598.000000	51.820892
4596.000000	51.885322
4594.000000	51.949842
4592.000000	52.015048
4590.000000	52.080356
4588.000000	52.143658
4586.000000	52.208021
4584.000000	52.274422
4582.000000	52.340088
4580.000000	52.402709
4578.000000	52.464190
4576.000000	52.526547
4574.000000	52.590708
4572.000000	52.655116
4570.000000	52.718759
4568.000000	52.782266
4566.000000	52.846367
4564.000000	52.910093
4562.000000	52.973877
4560.000000	53.036886
4558.000000	53.099697
4556.000000	53.161367
4554.000000	53.222646
4552.000000	53.283639
4550.000000	53.346822
4548.000000	53.410531
4546.000000	53.473764
4544.000000	53.534510
4542.000000	53.594650
4540.000000	53.656829
4538.000000	53.721643
4536.000000	53.784893
4534.000000	53.846921
4532.000000	53.910150
4530.000000	53.975259
4528.000000	54.039103
4526.000000	54.102156
4524.000000	54.166282
4522.000000	54.231452
4520.000000	54.295120
4518.000000	54.357971
4516.000000	54.420770
4514.000000	54.484190
4512.000000	54.548118
4510.000000	54.612823
4508.000000	54.678362
4506.000000	54.745302
4504.000000	54.812118
4502.000000	54.878421
4500.000000	54.944882
4498.000000	55.011168
4496.000000	55.075380
4494.000000	55.139816
4492.000000	55.206028
4490.000000	55.272810
4488.000000	55.337832
4486.000000	55.401947
4484.000000	55.465207
4482.000000	55.528827
4480.000000	55.592354
4478.000000	55.655924
4476.000000	55.720004
4474.000000	55.784400
4472.000000	55.847757
4470.000000	55.911479
4468.000000	55.974997
4466.000000	56.036284
4464.000000	56.096866
4462.000000	56.160095
4460.000000	56.224814
4458.000000	56.287727
4456.000000	56.348205
4454.000000	56.409037
4452.000000	56.470474
4450.000000	56.533240
4448.000000	56.595672
4446.000000	56.658629
4444.000000	56.722133
4442.000000	56.784669
4440.000000	56.845236
4438.000000	56.908366
4436.000000	56.972131
4434.000000	57.035018
4432.000000	57.097562
4430.000000	57.160739
4428.000000	57.223078
4426.000000	57.287172
4424.000000	57.350961
4422.000000	57.413726
4420.000000	57.476979
4418.000000	57.542353
4416.000000	57.607263
4414.000000	57.670987
4412.000000	57.732568
4410.000000	57.795910
4408.000000	57.862218
4406.000000	57.928067
4404.000000	57.990564
4402.000000	58.053559
4400.000000	58.119297
4398.000000	58.185484
4396.000000	58.248642
4394.000000	58.311074
4392.000000	58.374617
4390.000000	58.438736
4388.000000	58.500648
4386.000000	58.561047
4384.000000	58.622166
4382.000000	58.684654
4380.000000	58.745653
4378.000000	58.806364
4376.000000	58.867176
4374.000000	58.927869
4372.000000	58.988036
4370.000000	59.048872
4368.000000	59.108110
4366.000000	59.167228
4364.000000	59.226936
4362.000000	59.287297
4360.000000	59.347746
4358.000000	59.410106
4356.000000	59.473418
4354.000000	59.536938
4352.000000	59.599782
4350.000000	59.662856
4348.000000	59.725565
4346.000000	59.788730
4344.000000	59.852680
4342.000000	59.915959
4340.000000	59.977303
4338.000000	60.039514
4336.000000	60.103153
4334.000000	60.167540
4332.000000	60.232503
4330.000000	60.298249
4328.000000	60.362881
4326.000000	60.426999
4324.000000	60.492096
4322.000000	60.560032
4320.000000	60.629196
4318.000000	60.697779
4316.000000	60.765164
4314.000000	60.831448
4312.000000	60.896822
4310.000000	60.964045
4308.000000	61.031345
4306.000000	61.097667
4304.000000	61.164264
4302.000000	61.231886
4300.000000	61.298718
4298.000000	61.363911
4296.000000	61.427476
4294.000000	61.491788
4292.000000	61.556543
4290.000000	61.621082
4288.000000	61.684329
4286.000000	61.745419
4284.000000	61.805495
4282.000000	61.867512
4280.000000	61.929186
4278.000000	61.988852
4276.000000	62.048244
4274.000000	62.108416
4272.000000	62.166805
4270.000000	62.223203
4268.000000	62.279968
4266.000000	62.340344
4264.000000	62.403266
4262.000000	62.467143
4260.000000	62.530024
4258.000000	62.592729
4256.000000	62.655517
4254.000000	62.718544
4252.000000	62.781963
4250.000000	62.847291
4248.000000	62.912119
4246.000000	62.974811
4244.000000	63.036928
4242.000000	63.101182
4240.000000	63.165513
4238.000000	63.229798
4236.000000	63.295328
4234.000000	63.361884
4232.000000	63.426775
4230.000000	63.490010
4228.000000	63.553209
4226.000000	63.618122
4224.000000	63.682391
4222.000000	63.746307
4220.000000	63.811604
4218.000000	63.877433
4216.000000	63.941679
4214.000000	64.006195
4212.000000	64.071452
4210.000000	64.137036
4208.000000	64.201939
4206.000000	64.269907
4204.000000	64.339984
4202.000000	64.407442
4200.000000	64.473113
4198.000000	64.541590
4196.000000	64.610587
4194.000000	64.679016
4192.000000	64.746769
4190.000000	64.815367
4188.000000	64.883809
4186.000000	64.951853
4184.000000	65.019998
4182.000000	65.086325
4180.000000	65.149232
4178.000000	65.214037
4176.000000	65.280945
4174.000000	65.346643
4172.000000	65.410728
4170.000000	65.474919
4168.000000	65.540126
4166.000000	65.606206
4164.000000	65.670138
4162.000000	65.732737
4160.000000	65.795501
4158.000000	65.858535
4156.000000	65.922515
4154.000000	65.988085
4152.000000	66.053555
4150.000000	66.120255
4148.000000	66.187128
4146.000000	66.251280
4144.000000	66.315125
4142.000000	66.381900
4140.000000	66.447522
4138.000000	66.512618
4136.000000	66.578435
4134.000000	66.643971
4132.000000	66.709339
4130.000000	66.775116
4128.000000	66.841312
4126.000000	66.908423
4124.000000	66.973991
4122.000000	67.039189
4120.000000	67.105568
4118.000000	67.172815
4116.000000	67.239165
4114.000000	67.305355
4112.000000	67.371556
4110.000000	67.436666
4108.000000	67.500054
4106.000000	67.564442
4104.000000	67.629563
4102.000000	67.694200
4100.000000	67.757766
4098.000000	67.822329
4096.000000	67.888111
4094.000000	67.953502
4092.000000	68.017975
4090.000000	68.083461
4088.000000	68.151023
4086.000000	68.221221
4084.000000	68.291356
4082.000000	68.360603
4080.000000	68.428737
4078.000000	68.496143
4076.000000	68.562295
4074.000000	68.627748
4072.000000	68.693322
4070.000000	68.759226
4068.000000	68.824483
4066.000000	68.889808
4064.000000	68.954018
4062.000000	69.018334
4060.000000	69.083367
4058.000000	69.149826
4056.000000	69.216526
4054.000000	69.280565
4052.000000	69.343297
4050.000000	69.409318
4048.000000	69.474327
4046.000000	69.536622
4044.000000	69.600824
4042.000000	69.669034
4040.000000	69.737738
4038.000000	69.805153
4036.000000	69.871884
4034.000000	69.938785
4032.000000	70.004785
4030.000000	70.071410
4028.000000	70.137393
4026.000000	70.203843
4024.000000	70.274202
4022.000000	70.345037
4020.000000	70.411688
4018.000000	70.478699
4016.000000	70.548589
4014.000000	70.618626
4012.000000	70.685870
4010.000000	70.751703
4008.000000	70.819355
4006.000000	70.890479
4004.000000	70.961287
4002.000000	71.029790
4000.000000	71.097200
3998.000000	71.164296
3996.000000	71.229010
3994.000000	71.291931
3992.000000	71.355649
3990.000000	71.422506
3988.000000	71.489909
3986.000000	71.554552
3984.000000	71.616635
3982.000000	71.679840
3980.000000	71.742655
3978.000000	71.803160
3976.000000	71.862241
3974.000000	71.923185
3972.000000	71.987653
3970.000000	72.054099
3968.000000	72.119738
3966.000000	72.182045
3964.000000	72.237452
3962.000000	72.293406
3960.000000	72.355282
3958.000000	72.420410
3956.000000	72.484634
3954.000000	72.541440
3952.000000	72.585515
3950.000000	72.628339
3948.000000	72.687924
3946.000000	72.752131
3944.000000	72.805023
3942.000000	72.875490
3940.000000	72.967079
3938.000000	73.045540
3936.000000	73.091076
3934.000000	73.113308
3932.000000	73.158606
3930.000000	73.248830
3928.000000	73.333300
3926.000000	73.388884
3924.000000	73.449936
3922.000000	73.508919
3920.000000	73.537678
3918.000000	73.581708
3916.000000	73.690861
3914.000000	73.823129
3912.000000	73.921027
3910.000000	73.979178
3908.000000	73.967458
3906.000000	73.870548
3904.000000	73.791537
3902.000000	73.825948
3900.000000	73.971501
3898.000000	74.185394
3896.000000	74.349627
3894.000000	74.362553
3892.000000	74.340469
3890.000000	74.408142
3888.000000	74.429274
3886.000000	74.416879
3884.000000	74.522537
3882.000000	74.640242
3880.000000	74.741894
3878.000000	74.867400
3876.000000	74.917215
3874.000000	74.874478
3872.000000	74.765896
3870.000000	74.744707
3868.000000	74.891043
3866.000000	75.013691
3864.000000	75.106795
3862.000000	75.266132
3860.000000	75.404213
3858.000000	75.286223
3856.000000	74.780051
3854.000000	74.427707
3852.000000	74.781722
3850.000000	75.435923
3848.000000	75.810496
3846.000000	75.886537
3844.000000	75.856729
3842.000000	75.769758
3840.000000	75.575979
3838.000000	75.493783
3836.000000	75.714731
3834.000000	76.001989
3832.000000	76.187765
3830.000000	76.331956
3828.000000	76.432249
3826.000000	76.471620
3824.000000	76.382088
3822.000000	76.259150
3820.000000	76.289745
3818.000000	76.305325
3816.000000	76.365390
3814.000000	76.684711
3812.000000	76.973663
3810.000000	76.964771
3808.000000	76.831006
3806.000000	76.842613
3804.000000	76.823775
3802.000000	76.742077
3800.000000	76.924652
3798.000000	77.215629
3796.000000	77.400516
3794.000000	77.551799
3792.000000	77.664485
3790.000000	77.731235
3788.000000	77.773323
3786.000000	77.808064
3784.000000	77.852598
3782.000000	77.873062
3780.000000	77.889023
3778.000000	77.984020
3776.000000	78.110141
3774.000000	78.158881
3772.000000	78.108814
3770.000000	78.081873
3768.000000	78.155525
3766.000000	78.265014
3764.000000	78.367192
3762.000000	78.402572
3760.000000	78.393310
3758.000000	78.440858
3756.000000	78.417155
3754.000000	78.128152
3752.000000	77.806473
3750.000000	77.840058
3748.000000	78.005036
3746.000000	77.912111
3744.000000	78.022289
3742.000000	78.548428
3740.000000	78.846162
3738.000000	78.742106
3736.000000	78.635372
3734.000000	78.719920
3732.000000	78.945947
3730.000000	79.209416
3728.000000	79.344190
3726.000000	79.386605
3724.000000	79.451815
3722.000000	79.546185
3720.000000	79.661148
3718.000000	79.763280
3716.000000	79.757118
3714.000000	79.584771
3712.000000	79.473309
3710.000000	79.630390
3708.000000	79.906489
3706.000000	80.084699
3704.000000	80.111721
3702.000000	80.119442
3700.000000	80.222213
3698.000000	80.342064
3696.000000	80.396925
3694.000000	80.349925
3692.000000	80.149158
3690.000000	79.912984
3688.000000	79.993920
3686.000000	80.377054
3684.000000	80.647661
3682.000000	80.694447
3680.000000	80.584504
3678.000000	80.286049
3676.000000	80.071741
3674.000000	80.180784
3672.000000	80.268077
3670.000000	80.354172
3668.000000	80.673692
3666.000000	80.976850
3664.000000	81.101978
3662.000000	81.135604
3660.000000	81.097476
3658.000000	80.973912
3656.000000	80.934563
3654.000000	80.959717
3652.000000	80.766773
3650.000000	80.533357
3648.000000	80.650770
3646.000000	81.005648
3644.000000	81.263250
3642.000000	81.359404
3640.000000	81.392161
3638.000000	81.405207
3636.000000	81.393638
3634.000000	81.338966
3632.000000	81.128459
3630.000000	80.851000
3628.000000	80.924776
3626.000000	81.269650
3624.000000	81.444585
3622.000000	81.361567
3620.000000	81.230771
3618.000000	81.257630
3616.000000	81.344391
3614.000000	81.342914
3612.000000	81.293830
3610.000000	81.259028
3608.000000	81.321297
3606.000000	81.463881
3604.000000	81.546149
3602.000000	81.544048
3600.000000	81.526379
3598.000000	81.509135
3596.000000	81.487618
3594.000000	81.494575
3592.000000	81.486282
3590.000000	81.381972
3588.000000	81.297122
3586.000000	81.369190
3584.000000	81.494659
3582.000000	81.550367
3580.000000	81.555002
3578.000000	81.551575
3576.000000	81.549352
3574.000000	81.547743
3572.000000	81.514325
3570.000000	81.402844
3568.000000	81.290121
3566.000000	81.312060
3564.000000	81.413598
3562.000000	81.472108
3560.000000	81.489201
3558.000000	81.498645
3556.000000	81.490036
3554.000000	81.459688
3552.000000	81.441430
3550.000000	81.429994
3548.000000	81.387937
3546.000000	81.355409
3544.000000	81.374331
3542.000000	81.404887
3540.000000	81.407098
3538.000000	81.386022
3536.000000	81.365867
3534.000000	81.353293
3532.000000	81.324802
3530.000000	81.275704
3528.000000	81.226329
3526.000000	81.185182
3524.000000	81.147099
3522.000000	81.122961
3520.000000	81.106805
3518.000000	81.081985
3516.000000	81.050342
3514.000000	81.011128
3512.000000	80.959876
3510.000000	80.906642
3508.000000	80.864513
3506.000000	80.811285
3504.000000	80.741162
3502.000000	80.690634
3500.000000	80.657313
3498.000000	80.610337
3496.000000	80.554729
3494.000000	80.504115
3492.000000	80.453526
3490.000000	80.398314
3488.000000	80.345054
3486.000000	80.304020
3484.000000	80.264918
3482.000000	80.229213
3480.000000	80.210733
3478.000000	80.204798
3476.000000	80.203097
3474.000000	80.206655
3472.000000	80.215738
3470.000000	80.225709
3468.000000	80.241206
3466.000000	80.269918
3464.000000	80.306279
3462.000000	80.342887
3460.000000	80.379666
3458.000000	80.415676
3456.000000	80.448181
3454.000000	80.476550
3452.000000	80.499976
3450.000000	80.512612
3448.000000	80.519948
3446.000000	80.546466
3444.000000	80.591299
3442.000000	80.645472
3440.000000	80.715513
3438.000000	80.802178
3436.000000	80.906250
3434.000000	81.029569
3432.000000	81.165322
3430.000000	81.304802
3428.000000	81.446314
3426.000000	81.583335
3424.000000	81.705950
3422.000000	81.814744
3420.000000	81.923950
3418.000000	82.035044
3416.000000	82.132021
3414.000000	82.213334
3412.000000	82.287507
3410.000000	82.353300
3408.000000	82.412436
3406.000000	82.470499
3404.000000	82.523725
3402.000000	82.574718
3400.000000	82.635298
3398.000000	82.709157
3396.000000	82.786356
3394.000000	82.855713
3392.000000	82.924759
3390.000000	83.002638
3388.000000	83.076369
3386.000000	83.137921
3384.000000	83.195002
3382.000000	83.251908
3380.000000	83.306902
3378.000000	83.358869
3376.000000	83.407591
3374.000000	83.453767
3372.000000	83.494894
3370.000000	83.530872
3368.000000	83.572399
3366.000000	83.620954
3364.000000	83.669574
3362.000000	83.715523
3360.000000	83.759766
3358.000000	83.802300
3356.000000	83.843204
3354.000000	83.883786
3352.000000	83.922682
3350.000000	83.963856
3348.000000	84.008417
3346.000000	84.052088
3344.000000	84.093950
3342.000000	84.133743
3340.000000	84.171449
3338.000000	84.208338
3336.000000	84.248466
3334.000000	84.291442
3332.000000	84.334017
3330.000000	84.371878
3328.000000	84.404614
3326.000000	84.438132
3324.000000	84.476569
3322.000000	84.516180
3320.000000	84.553966
3318.000000	84.590014
3316.000000	84.625022
3314.000000	84.659205
3312.000000	84.690796
3310.000000	84.719245
3308.000000	84.746932
3306.000000	84.778243
3304.000000	84.817920
3302.000000	84.863020
3300.000000	84.904574
3298.000000	84.938313
3296.000000	84.969167
3294.000000	85.000953
3292.000000	85.036663
3290.000000	85.078008
3288.000000	85.120168
3286.000000	85.158996
3284.000000	85.196052
3282.000000	85.234314
3280.000000	85.272335
3278.000000	85.307602
3276.000000	85.342161
3274.000000	85.379405
3272.000000	85.419069
3270.000000	85.462897
3268.000000	85.508309
3266.000000	85.550894
3264.000000	85.594539
3262.000000	85.638018
3260.000000	85.680184
3258.000000	85.722410
3256.000000	85.767171
3254.000000	85.815372
3252.000000	85.865008
3250.000000	85.914223
3248.000000	85.959896
3246.000000	86.003397
3244.000000	86.053329
3242.000000	86.106933
3240.000000	86.159306
3238.000000	86.208685
3236.000000	86.253813
3234.000000	86.298134
3232.000000	86.347023
3230.000000	86.400242
3228.000000	86.453147
3226.000000	86.505196
3224.000000	86.553997
3222.000000	86.598190
3220.000000	86.642715
3218.000000	86.690956
3216.000000	86.739046
3214.000000	86.789417
3212.000000	86.842612
3210.000000	86.896341
3208.000000	86.953981
3206.000000	87.014429
3204.000000	87.080325
3202.000000	87.150164
3200.000000	87.218985
3198.000000	87.289074
3196.000000	87.363122
3194.000000	87.437767
3192.000000	87.510281
3190.000000	87.580989
3188.000000	87.650753
3186.000000	87.720817
3184.000000	87.792168
3182.000000	87.862663
3180.000000	87.931870
3178.000000	88.002653
3176.000000	88.075449
3174.000000	88.148081
3172.000000	88.218874
3170.000000	88.291565
3168.000000	88.367066
3166.000000	88.441992
3164.000000	88.516277
3162.000000	88.591451
3160.000000	88.669605
3158.000000	88.748390
3156.000000	88.825679
3154.000000	88.899440
3152.000000	88.972348
3150.000000	89.051809
3148.000000	89.134306
3146.000000	89.212010
3144.000000	89.286893
3142.000000	89.359974
3140.000000	89.429661
3138.000000	89.500594
3136.000000	89.572377
3134.000000	89.637927
3132.000000	89.702537
3130.000000	89.769894
3128.000000	89.835177
3126.000000	89.896766
3124.000000	89.954464
3122.000000	90.008991
3120.000000	90.061600
3118.000000	90.113477
3116.000000	90.168782
3114.000000	90.227365
3112.000000	90.283275
3110.000000	90.334758
3108.000000	90.387192
3106.000000	90.443482
3104.000000	90.501363
3102.000000	90.560074
3100.000000	90.624114
3098.000000	90.689970
3096.000000	90.754134
3094.000000	90.819661
3092.000000	90.882992
3090.000000	90.943057
3088.000000	91.001770
3086.000000	91.056685
3084.000000	91.106496
3082.000000	91.149620
3080.000000	91.186721
3078.000000	91.223880
3076.000000	91.260882
3074.000000	91.288221
3072.000000	91.307010
3070.000000	91.318526
3068.000000	91.324784
3066.000000	91.340854
3064.000000	91.375201
3062.000000	91.421509
3060.000000	91.474291
3058.000000	91.529936
3056.000000	91.590986
3054.000000	91.654565
3052.000000	91.713525
3050.000000	91.764613
3048.000000	91.811016
3046.000000	91.850382
3044.000000	91.881576
3042.000000	91.908441
3040.000000	91.933570
3038.000000	91.953139
3036.000000	91.961375
3034.000000	91.960102
3032.000000	91.949371
3030.000000	91.918623
3028.000000	91.852031
3026.000000	91.742705
3024.000000	91.611866
3022.000000	91.493114
3020.000000	91.426053
3018.000000	91.451905
3016.000000	91.593502
3014.000000	91.831395
3012.000000	92.116506
3010.000000	92.393509
3008.000000	92.619073
3006.000000	92.780994
3004.000000	92.894613
3002.000000	92.975719
3000.000000	93.033930
2998.000000	93.074186
2996.000000	93.104196
2994.000000	93.125712
2992.000000	93.136216
2990.000000	93.134610
2988.000000	93.118783
2986.000000	93.083852
2984.000000	93.025231
2982.000000	92.939035
2980.000000	92.819100
2978.000000	92.653659
2976.000000	92.429009
2974.000000	92.127033
2972.000000	91.733588
2970.000000	91.253157
2968.000000	90.730097
2966.000000	90.245571
2964.000000	89.887236
2962.000000	89.713093
2960.000000	89.722782
2958.000000	89.860120
2956.000000	90.051208
2954.000000	90.234379
2952.000000	90.376094
2950.000000	90.446828
2948.000000	90.411581
2946.000000	90.248897
2944.000000	89.954789
2942.000000	89.542234
2940.000000	89.047838
2938.000000	88.532714
2936.000000	88.059297
2934.000000	87.637739
2932.000000	87.237189
2930.000000	86.846722
2928.000000	86.516044
2926.000000	86.348091
2924.000000	86.453197
2922.000000	86.874163
2920.000000	87.552989
2918.000000	88.373754
2916.000000	89.229618
2914.000000	90.035205
2912.000000	90.727741
2910.000000	91.279278
2908.000000	91.708459
2906.000000	92.056047
2904.000000	92.358375
2902.000000	92.633489
2900.000000	92.889816
2898.000000	93.130021
2896.000000	93.355820
2894.000000	93.571021
2892.000000	93.773787
2890.000000	93.960833
2888.000000	94.124635
2886.000000	94.253808
2884.000000	94.342097
2882.000000	94.386462
2880.000000	94.383873
2878.000000	94.330845
2876.000000	94.221164
2874.000000	94.044613
2872.000000	93.790144
2870.000000	93.431006
2868.000000	92.944969
2866.000000	92.368432
2864.000000	91.822490
2862.000000	91.464413
2860.000000	91.386034
2858.000000	91.553120
2856.000000	91.856617
2854.000000	92.215927
2852.000000	92.630508
2850.000000	93.139149
2848.000000	93.743654
2846.000000	94.362352
2844.000000	94.902631
2842.000000	95.334696
2840.000000	95.675033
2838.000000	95.947014
2836.000000	96.166841
2834.000000	96.348328
2832.000000	96.505912
2830.000000	96.641910
2828.000000	96.761628
2826.000000	96.871446
2824.000000	96.974302
2822.000000	97.069210
2820.000000	97.155438
2818.000000	97.232469
2816.000000	97.302839
2814.000000	97.366161
2812.000000	97.423377
2810.000000	97.476065
2808.000000	97.525127
2806.000000	97.572079
2804.000000	97.620939
2802.000000	97.667211
2800.000000	97.709361
2798.000000	97.749844
2796.000000	97.790673
2794.000000	97.831830
2792.000000	97.878073
2790.000000	97.934619
2788.000000	98.004653
2786.000000	98.087493
2784.000000	98.174247
2782.000000	98.253253
2780.000000	98.325511
2778.000000	98.392724
2776.000000	98.453715
2774.000000	98.510038
2772.000000	98.565564
2770.000000	98.618707
2768.000000	98.670172
2766.000000	98.719854
2764.000000	98.769393
2762.000000	98.816918
2760.000000	98.862518
2758.000000	98.905666
2756.000000	98.948154
2754.000000	98.989893
2752.000000	99.030033
2750.000000	99.068764
2748.000000	99.104772
2746.000000	99.138055
2744.000000	99.174159
2742.000000	99.209304
2740.000000	99.243729
2738.000000	99.279333
2736.000000	99.314695
2734.000000	99.346878
2732.000000	99.379194
2730.000000	99.412733
2728.000000	99.447084
2726.000000	99.481075
2724.000000	99.513499
2722.000000	99.543978
2720.000000	99.576245
2718.000000	99.608838
2716.000000	99.637685
2714.000000	99.662385
2712.000000	99.686595
2710.000000	99.710180
2708.000000	99.734676
2706.000000	99.760001
2704.000000	99.789697
2702.000000	99.827166
2700.000000	99.872398
2698.000000	99.919844
2696.000000	99.966400
2694.000000	100.010704
2692.000000	100.053401
2690.000000	100.095597
2688.000000	100.138700
2686.000000	100.179001
2684.000000	100.217120
2682.000000	100.252706
2680.000000	100.286606
2678.000000	100.318657
2676.000000	100.353518
2674.000000	100.389003
2672.000000	100.420651
2670.000000	100.447432
2668.000000	100.476516
2666.000000	100.506211
2664.000000	100.535135
2662.000000	100.564721
2660.000000	100.596303
2658.000000	100.626750
2656.000000	100.658671
2654.000000	100.694459
2652.000000	100.733231
2650.000000	100.772870
2648.000000	100.815611
2646.000000	100.855254
2644.000000	100.891003
2642.000000	100.926804
2640.000000	100.964544
2638.000000	100.998623
2636.000000	101.029344
2634.000000	101.060573
2632.000000	101.094209
2630.000000	101.126456
2628.000000	101.155604
2626.000000	101.183909
2624.000000	101.211810
2622.000000	101.238933
2620.000000	101.267999
2618.000000	101.294587
2616.000000	101.321214
2614.000000	101.347121
2612.000000	101.371844
2610.000000	101.391732
2608.000000	101.410603
2606.000000	101.429389
2604.000000	101.445687
2602.000000	101.456287
2600.000000	101.465448
2598.000000	101.477374
2596.000000	101.488922
2594.000000	101.500456
2592.000000	101.522152
2590.000000	101.557151
2588.000000	101.601601
2586.000000	101.652255
2584.000000	101.710444
2582.000000	101.771799
2580.000000	101.832561
2578.000000	101.890096
2576.000000	101.945763
2574.000000	101.994419
2572.000000	102.037474
2570.000000	102.076300
2568.000000	102.111913
2566.000000	102.146863
2564.000000	102.182695
2562.000000	102.215490
2560.000000	102.244842
2558.000000	102.271519
2556.000000	102.299037
2554.000000	102.324536
2552.000000	102.349131
2550.000000	102.375230
2548.000000	102.402250
2546.000000	102.427773
2544.000000	102.454744
2542.000000	102.482002
2540.000000	102.508421
2538.000000	102.535066
2536.000000	102.563915
2534.000000	102.591426
2532.000000	102.617962
2530.000000	102.643465
2528.000000	102.668454
2526.000000	102.693415
2524.000000	102.718659
2522.000000	102.741505
2520.000000	102.764228
2518.000000	102.787491
2516.000000	102.812099
2514.000000	102.835882
2512.000000	102.859567
2510.000000	102.880802
2508.000000	102.902950
2506.000000	102.924187
2504.000000	102.944118
2502.000000	102.964332
2500.000000	102.988609
2498.000000	103.013471
2496.000000	103.039928
2494.000000	103.068147
2492.000000	103.096416
2490.000000	103.120660
2488.000000	103.145173
2486.000000	103.172702
2484.000000	103.200975
2482.000000	103.225519
2480.000000	103.250751
2478.000000	103.275664
2476.000000	103.298147
2474.000000	103.318215
2472.000000	103.338833
2470.000000	103.357741
2468.000000	103.377512
2466.000000	103.394113
2464.000000	103.408891
2462.000000	103.423689
2460.000000	103.440084
2458.000000	103.457932
2456.000000	103.477326
2454.000000	103.494018
2452.000000	103.510440
2450.000000	103.527720
2448.000000	103.545520
2446.000000	103.561170
2444.000000	103.576730
2442.000000	103.592127
2440.000000	103.607529
2438.000000	103.622413
2436.000000	103.637075
2434.000000	103.651345
2432.000000	103.665135
2430.000000	103.676456
2428.000000	103.687700
2426.000000	103.701065
2424.000000	103.718807
2422.000000	103.736326
2420.000000	103.749378
2418.000000	103.761027
2416.000000	103.773894
2414.000000	103.786503
2412.000000	103.800793
2410.000000	103.811794
2408.000000	103.822936
2406.000000	103.836261
2404.000000	103.852388
2402.000000	103.866824
2400.000000	103.882689
2398.000000	103.898082
2396.000000	103.915275
2394.000000	103.932870
2392.000000	103.949693
2390.000000	103.966957
2388.000000	103.982367
2386.000000	103.989176
2384.000000	103.985922
2382.000000	103.962951
2380.000000	103.911897
2378.000000	103.827606
2376.000000	103.705582
2374.000000	103.545574
2372.000000	103.361363
2370.000000	103.166315
2368.000000	102.980768
2366.000000	102.826258
2364.000000	102.723720
2362.000000	102.689435
2360.000000	102.734917
2358.000000	102.858350
2356.000000	103.055227
2354.000000	103.310600
2352.000000	103.593962
2350.000000	103.802015
2348.000000	103.796556
2346.000000	103.617979
2344.000000	103.425662
2342.000000	103.285608
2340.000000	103.204156
2338.000000	103.169010
2336.000000	103.167830
2334.000000	103.192125
2332.000000	103.241028
2330.000000	103.311429
2328.000000	103.398790
2326.000000	103.493392
2324.000000	103.593133
2322.000000	103.693348
2320.000000	103.788500
2318.000000	103.872764
2316.000000	103.948685
2314.000000	104.016776
2312.000000	104.077864
2310.000000	104.130191
2308.000000	104.173619
2306.000000	104.208396
2304.000000	104.237265
2302.000000	104.261785
2300.000000	104.285128
2298.000000	104.304088
2296.000000	104.319779
2294.000000	104.332191
2292.000000	104.345989
2290.000000	104.359307
2288.000000	104.371490
2286.000000	104.378586
2284.000000	104.383024
2282.000000	104.383006
2280.000000	104.381960
2278.000000	104.378877
2276.000000	104.375391
2274.000000	104.371566
2272.000000	104.367525
2270.000000	104.359100
2268.000000	104.351904
2266.000000	104.345398
2264.000000	104.343129
2262.000000	104.341220
2260.000000	104.341167
2258.000000	104.341097
2256.000000	104.339837
2254.000000	104.339315
2252.000000	104.344298
2250.000000	104.351717
2248.000000	104.360800
2246.000000	104.369528
2244.000000	104.378258
2242.000000	104.387118
2240.000000	104.401117
2238.000000	104.417317
2236.000000	104.432587
2234.000000	104.445951
2232.000000	104.461000
2230.000000	104.473990
2228.000000	104.487727
2226.000000	104.500236
2224.000000	104.510342
2222.000000	104.517908
2220.000000	104.526888
2218.000000	104.533298
2216.000000	104.539657
2214.000000	104.546329
2212.000000	104.552263
2210.000000	104.556601
2208.000000	104.563054
2206.000000	104.565826
2204.000000	104.569488
2202.000000	104.573278
2200.000000	104.580887
2198.000000	104.585686
2196.000000	104.586387
2194.000000	104.588100
2192.000000	104.591729
2190.000000	104.592745
2188.000000	104.593138
2186.000000	104.592817
2184.000000	104.594055
2182.000000	104.592227
2180.000000	104.592656
2178.000000	104.592288
2176.000000	104.589169
2174.000000	104.579408
2172.000000	104.555800
2170.000000	104.530746
2168.000000	104.542421
2166.000000	104.565036
2164.000000	104.574638
2162.000000	104.575422
2160.000000	104.572982
2158.000000	104.571406
2156.000000	104.574081
2154.000000	104.573415
2152.000000	104.572951
2150.000000	104.570555
2148.000000	104.567873
2146.000000	104.565847
2144.000000	104.566854
2142.000000	104.565410
2140.000000	104.564331
2138.000000	104.560688
2136.000000	104.559123
2134.000000	104.558526
2132.000000	104.556411
2130.000000	104.555165
2128.000000	104.555567
2126.000000	104.554667
2124.000000	104.555282
2122.000000	104.555823
2120.000000	104.556765
2118.000000	104.558849
2116.000000	104.563055
2114.000000	104.571287
2112.000000	104.581769
2110.000000	104.592376
2108.000000	104.605227
2106.000000	104.617583
2104.000000	104.630397
2102.000000	104.641302
2100.000000	104.654494
2098.000000	104.667423
2096.000000	104.679015
2094.000000	104.689715
2092.000000	104.703449
2090.000000	104.714769
2088.000000	104.731876
2086.000000	104.749553
2084.000000	104.766646
2082.000000	104.779882
2080.000000	104.797443
2078.000000	104.811912
2076.000000	104.827765
2074.000000	104.842471
2072.000000	104.861833
2070.000000	104.881184
2068.000000	104.897544
2066.000000	104.908629
2064.000000	104.931982
2062.000000	104.961768
2060.000000	104.986010
2058.000000	105.004811
2056.000000	105.024945
2054.000000	105.045705
2052.000000	105.069046
2050.000000	105.086824
2048.000000	105.106537
2046.000000	105.126239
2044.000000	105.144419
2042.000000	105.157088
2040.000000	105.175636
2038.000000	105.190457
2036.000000	105.202251
2034.000000	105.211231
2032.000000	105.212111
2030.000000	105.193668
2028.000000	105.202168
2026.000000	105.239442
2024.000000	105.263981
2022.000000	105.272168
2020.000000	105.274228
2018.000000	105.273992
2016.000000	105.297334
2014.000000	105.331497
2012.000000	105.353876
2010.000000	105.367020
2008.000000	105.380520
2006.000000	105.392700
2004.000000	105.404262
2002.000000	105.413340
2000.000000	105.420306
1998.000000	105.421832
1996.000000	105.420599
1994.000000	105.395319
1992.000000	105.371022
1990.000000	105.388704
1988.000000	105.407041
1986.000000	105.410867
1984.000000	105.407833
1982.000000	105.397221
1980.000000	105.386237
1978.000000	105.372475
1976.000000	105.358242
1974.000000	105.342499
1972.000000	105.325438
1970.000000	105.292373
1968.000000	105.245324
1966.000000	105.224392
1964.000000	105.218489
1962.000000	105.162198
1960.000000	105.040740
1958.000000	105.009565
1956.000000	105.091758
1954.000000	105.120971
1952.000000	105.100769
1950.000000	105.067425
1948.000000	105.046192
1946.000000	105.011011
1944.000000	104.941993
1942.000000	104.906209
1940.000000	104.943705
1938.000000	104.948564
1936.000000	104.925956
1934.000000	104.898325
1932.000000	104.874726
1930.000000	104.845358
1928.000000	104.816678
1926.000000	104.767505
1924.000000	104.693073
1922.000000	104.642326
1920.000000	104.562167
1918.000000	104.462979
1916.000000	104.509321
1914.000000	104.537079
1912.000000	104.483297
1910.000000	104.405651
1908.000000	104.359217
1906.000000	104.319931
1904.000000	104.273246
1902.000000	104.220305
1900.000000	104.174656
1898.000000	104.116973
1896.000000	104.056757
1894.000000	104.021896
1892.000000	103.977621
1890.000000	103.898204
1888.000000	103.914192
1886.000000	103.945280
1884.000000	103.938375
1882.000000	103.919610
1880.000000	103.900977
1878.000000	103.874884
1876.000000	103.852189
1874.000000	103.816130
1872.000000	103.712770
1870.000000	103.514780
1868.000000	103.481989
1866.000000	103.601734
1864.000000	103.656048
1862.000000	103.632597
1860.000000	103.600279
1858.000000	103.567922
1856.000000	103.542529
1854.000000	103.505469
1852.000000	103.467111
1850.000000	103.402960
1848.000000	103.291275
1846.000000	103.007733
1844.000000	102.825485
1842.000000	103.029459
1840.000000	103.160267
1838.000000	103.109075
1836.000000	103.057265
1834.000000	102.991121
1832.000000	102.802524
1830.000000	102.612104
1828.000000	102.623821
1826.000000	102.574856
1824.000000	102.553398
1822.000000	102.599316
1820.000000	102.563051
1818.000000	102.480028
1816.000000	102.415832
1814.000000	102.329263
1812.000000	102.194077
1810.000000	102.093005
1808.000000	102.051544
1806.000000	101.979683
1804.000000	101.833689
1802.000000	101.622298
1800.000000	101.493893
1798.000000	101.458170
1796.000000	101.336445
1794.000000	100.965865
1792.000000	100.739370
1790.000000	100.891224
1788.000000	100.954580
1786.000000	100.783580
1784.000000	100.649782
1782.000000	100.547585
1780.000000	100.439822
1778.000000	100.366606
1776.000000	100.153613
1774.000000	99.650608
1772.000000	99.382451
1770.000000	99.561959
1768.000000	99.649970
1766.000000	99.738350
1764.000000	99.610360
1762.000000	99.351392
1760.000000	99.322838
1758.000000	99.223796
1756.000000	99.086529
1754.000000	98.899613
1752.000000	98.428875
1750.000000	98.226143
1748.000000	98.279463
1746.000000	98.247915
1744.000000	98.096124
1742.000000	97.831570
1740.000000	97.574916
1738.000000	97.507811
1736.000000	96.960827
1734.000000	96.403379
1732.000000	96.865041
1730.000000	97.311214
1728.000000	97.401105
1726.000000	97.371138
1724.000000	97.287341
1722.000000	97.158325
1720.000000	96.639864
1718.000000	95.924860
1716.000000	96.020124
1714.000000	96.489300
1712.000000	96.696093
1710.000000	96.619993
1708.000000	96.385255
1706.000000	96.110378
1704.000000	95.950425
1702.000000	95.286962
1700.000000	94.786612
1698.000000	94.932333
1696.000000	94.854365
1694.000000	95.435050
1692.000000	95.948600
1690.000000	95.896173
1688.000000	95.604095
1686.000000	94.702890
1684.000000	94.344783
1682.000000	95.104024
1680.000000	95.528528
1678.000000	95.403378
1676.000000	95.000718
1674.000000	94.961714
1672.000000	94.961698
1670.000000	94.694826
1668.000000	94.790828
1666.000000	94.955069
1664.000000	94.728625
1662.000000	94.589538
1660.000000	94.685142
1658.000000	94.589382
1656.000000	93.825511
1654.000000	92.421662
1652.000000	92.464071
1650.000000	93.490664
1648.000000	93.385923
1646.000000	93.141401
1644.000000	93.485841
1642.000000	93.663328
1640.000000	93.471171
1638.000000	92.916434
1636.000000	92.264251
1634.000000	92.442551
1632.000000	92.785028
1630.000000	92.600741
1628.000000	92.253925
1626.000000	91.881760
1624.000000	91.353046
1622.000000	90.962410
1620.000000	90.552052
1618.000000	89.709158
1616.000000	89.239343
1614.000000	89.225836
1612.000000	88.749663
1610.000000	88.126009
1608.000000	87.801752
1606.000000	87.826095
1604.000000	88.021224
1602.000000	88.265348
1600.000000	88.500771
1598.000000	88.702708
1596.000000	88.853525
1594.000000	88.970548
1592.000000	89.033538
1590.000000	89.035942
1588.000000	88.997881
1586.000000	88.931089
1584.000000	88.855421
1582.000000	88.802146
1580.000000	88.688845
1578.000000	88.147648
1576.000000	87.753148
1574.000000	88.216036
1572.000000	88.341058
1570.000000	88.016626
1568.000000	87.991304
1566.000000	87.961984
1564.000000	87.682445
1562.000000	86.857616
1560.000000	85.581426
1558.000000	85.547709
1556.000000	86.404934
1554.000000	86.931233
1552.000000	87.365555
1550.000000	87.643993
1548.000000	87.823154
1546.000000	87.795698
1544.000000	87.607651
1542.000000	87.212849
1540.000000	87.023301
1538.000000	87.858589
1536.000000	88.687254
1534.000000	88.761086
1532.000000	88.990577
1530.000000	89.208250
1528.000000	89.102570
1526.000000	88.919728
1524.000000	88.672290
1522.000000	88.200807
1520.000000	88.225564
1518.000000	88.383452
1516.000000	88.277648
1514.000000	88.176026
1512.000000	87.985273
1510.000000	87.579114
1508.000000	86.590724
1506.000000	85.952050
1504.000000	85.975534
1502.000000	85.048189
1500.000000	82.631021
1498.000000	79.399151
1496.000000	76.873628
1494.000000	76.398932
1492.000000	77.487703
1490.000000	79.280685
1488.000000	81.213002
1486.000000	82.768024
1484.000000	83.783230
1482.000000	84.299707
1480.000000	84.542565
1478.000000	84.500146
1476.000000	84.219860
1474.000000	83.780492
1472.000000	83.587160
1470.000000	83.715702
1468.000000	83.531578
1466.000000	82.995766
1464.000000	82.605956
1462.000000	82.296926
1460.000000	81.419399
1458.000000	79.933540
1456.000000	78.892595
1454.000000	78.411981
1452.000000	77.889070
1450.000000	77.966648
1448.000000	78.808334
1446.000000	79.773055
1444.000000	80.254825
1442.000000	80.370399
1440.000000	80.293988
1438.000000	79.987729
1436.000000	79.969584
1434.000000	80.346681
1432.000000	80.423310
1430.000000	80.363271
1428.000000	80.384163
1426.000000	80.384886
1424.000000	80.291506
1422.000000	80.082041
1420.000000	79.631626
1418.000000	79.543775
1416.000000	79.657545
1414.000000	79.520086
1412.000000	79.166454
1410.000000	78.638457
1408.000000	77.888185
1406.000000	77.071281
1404.000000	76.598007
1402.000000	76.608411
1400.000000	76.851160
1398.000000	77.287232
1396.000000	77.671649
1394.000000	77.989618
1392.000000	78.300030
1390.000000	78.306899
1388.000000	78.004499
1386.000000	77.715141
1384.000000	77.606329
1382.000000	77.711684
1380.000000	77.810853
1378.000000	77.759692
1376.000000	77.610014
1374.000000	77.478173
1372.000000	77.436365
1370.000000	77.339418
1368.000000	77.183040
1366.000000	77.023764
1364.000000	76.802942
1362.000000	76.619346
1360.000000	76.514624
1358.000000	76.376727
1356.000000	76.181591
1354.000000	75.976912
1352.000000	75.769236
1350.000000	75.553034
1348.000000	75.332420
1346.000000	75.103007
1344.000000	74.855089
1342.000000	74.586098
1340.000000	74.336331
1338.000000	74.194521
1336.000000	74.117313
1334.000000	74.019802
1332.000000	73.867320
1330.000000	73.674686
1328.000000	73.451413
1326.000000	73.210941
1324.000000	72.947835
1322.000000	72.663902
1320.000000	72.358538
1318.000000	72.058344
1316.000000	71.762298
1314.000000	71.451988
1312.000000	71.136322
1310.000000	70.822255
1308.000000	70.496338
1306.000000	70.165923
1304.000000	69.824824
1302.000000	69.479128
1300.000000	69.133795
1298.000000	68.787574
1296.000000	68.430545
1294.000000	68.065285
1292.000000	67.684296
1290.000000	67.289384
1288.000000	66.884741
1286.000000	66.482746
1284.000000	66.070286
1282.000000	65.639935
1280.000000	65.184064
1278.000000	64.696256
1276.000000	64.154925
1274.000000	63.538494
1272.000000	62.810272
1270.000000	61.927371
1268.000000	60.826155
1266.000000	59.508915
1264.000000	58.140983
1262.000000	57.046416
1260.000000	56.497396
1258.000000	56.503164
1256.000000	56.791669
1254.000000	57.029768
1252.000000	57.020283
1250.000000	56.772874
1248.000000	56.377091
1246.000000	55.906422
1244.000000	55.397026
1242.000000	54.880245
1240.000000	54.369651
1238.000000	53.874950
1236.000000	53.397137
1234.000000	52.936226
1232.000000	52.482699
1230.000000	52.036612
1228.000000	51.590345
1226.000000	51.140977
1224.000000	50.682014
1222.000000	50.211634
1220.000000	49.720049
1218.000000	49.208149
1216.000000	48.684851
1214.000000	48.171194
1212.000000	47.678342
1210.000000	47.222787
1208.000000	46.806879
1206.000000	46.412177
1204.000000	46.017314
1202.000000	45.617554
1200.000000	45.219929
1198.000000	44.829321
1196.000000	44.437769
1194.000000	44.036848
1192.000000	43.618023
1190.000000	43.185776
1188.000000	42.743222
1186.000000	42.273902
1184.000000	41.692348
1182.000000	40.968347
1180.000000	40.401161
1178.000000	40.151573
1176.000000	39.920557
1174.000000	39.563476
1172.000000	39.137393
1170.000000	38.688343
1168.000000	38.221498
1166.000000	37.746717
1164.000000	37.275607
1162.000000	36.814754
1160.000000	36.359673
1158.000000	35.922064
1156.000000	35.498401
1154.000000	35.079695
1152.000000	34.653433
1150.000000	34.230893
1148.000000	33.802841
1146.000000	33.364718
1144.000000	32.931990
1142.000000	32.550473
1140.000000	32.237957
1138.000000	31.927132
1136.000000	31.568132
1134.000000	31.174487
1132.000000	30.757164
1130.000000	30.330259
1128.000000	29.906912
1126.000000	29.488498
1124.000000	29.058413
1122.000000	28.619162
1120.000000	28.171084
1118.000000	27.713318
1116.000000	27.247873
1114.000000	26.781653
1112.000000	26.314166
1110.000000	25.849730
1108.000000	25.393811
1106.000000	24.959513
1104.000000	24.544259
1102.000000	24.131743
1100.000000	23.717076
1098.000000	23.311767
1096.000000	22.915653
1094.000000	22.532044
1092.000000	22.165413
1090.000000	21.815233
1088.000000	21.472276
1086.000000	21.133197
1084.000000	20.785126
1082.000000	20.427202
1080.000000	20.086846
1078.000000	19.780513
1076.000000	19.505506
1074.000000	19.274834
1072.000000	19.058056
1070.000000	18.828325
1068.000000	18.593971
1066.000000	18.365852
1064.000000	18.136345
1062.000000	17.900721
1060.000000	17.651424
1058.000000	17.364084
1056.000000	16.976046
1054.000000	16.465556
1052.000000	15.958154
1050.000000	15.656006
1048.000000	15.618438
1046.000000	15.700637
1044.000000	15.703534
1042.000000	15.586568
1040.000000	15.400493
1038.000000	15.188305
1036.000000	14.962198
1034.000000	14.724701
1032.000000	14.475333
1030.000000	14.218199
1028.000000	13.953558
1026.000000	13.685619
1024.000000	13.412094
1022.000000	13.143550
1020.000000	12.890412
1018.000000	12.656557
1016.000000	12.442079
1014.000000	12.252728
1012.000000	12.081517
1010.000000	11.920168
1008.000000	11.753178
1006.000000	11.574224
1004.000000	11.377055
1002.000000	11.162742
1000.000000	10.936083
