PE IR       SUBTECH     SPECTRUM    ASCII       PEDS        4.00        
   -1
TE109A_060_80K_after_125K_BG.ASC
20/04/21
18:18:01.00
20/04/21
18:18:01.00
Administrator
TE109A, Tuesday, April 21 2020, 060.
1000.000000
#HDR
-1
-1
#GR
cm-1
EGY
1.0
0.0
6000.000000
-2.000000
2501
8
104.705796
10.918152
#DATA
6000.000000	15.364023
5998.000000	15.393577
5996.000000	15.424787
5994.000000	15.456608
5992.000000	15.488948
5990.000000	15.519948
5988.000000	15.550750
5986.000000	15.583098
5984.000000	15.614815
5982.000000	15.646680
5980.000000	15.679424
5978.000000	15.713151
5976.000000	15.747533
5974.000000	15.778409
5972.000000	15.808460
5970.000000	15.840152
5968.000000	15.874090
5966.000000	15.908297
5964.000000	15.939583
5962.000000	15.970360
5960.000000	16.003380
5958.000000	16.037331
5956.000000	16.070618
5954.000000	16.102777
5952.000000	16.134426
5950.000000	16.167320
5948.000000	16.199807
5946.000000	16.232349
5944.000000	16.265025
5942.000000	16.296762
5940.000000	16.328286
5938.000000	16.360134
5936.000000	16.392380
5934.000000	16.424830
5932.000000	16.456144
5930.000000	16.488444
5928.000000	16.522510
5926.000000	16.557401
5924.000000	16.591781
5922.000000	16.624836
5920.000000	16.657883
5918.000000	16.691173
5916.000000	16.725142
5914.000000	16.760585
5912.000000	16.796073
5910.000000	16.831447
5908.000000	16.866009
5906.000000	16.901384
5904.000000	16.937565
5902.000000	16.973691
5900.000000	17.008279
5898.000000	17.043237
5896.000000	17.078246
5894.000000	17.113534
5892.000000	17.148002
5890.000000	17.181664
5888.000000	17.215844
5886.000000	17.250796
5884.000000	17.283974
5882.000000	17.316783
5880.000000	17.349649
5878.000000	17.383830
5876.000000	17.420554
5874.000000	17.458143
5872.000000	17.494329
5870.000000	17.527759
5868.000000	17.561362
5866.000000	17.596330
5864.000000	17.633182
5862.000000	17.670633
5860.000000	17.707510
5858.000000	17.744535
5856.000000	17.779318
5854.000000	17.814548
5852.000000	17.850732
5850.000000	17.886951
5848.000000	17.924226
5846.000000	17.961865
5844.000000	18.001845
5842.000000	18.041897
5840.000000	18.082052
5838.000000	18.122312
5836.000000	18.162185
5834.000000	18.202365
5832.000000	18.241598
5830.000000	18.281531
5828.000000	18.322401
5826.000000	18.364272
5824.000000	18.403469
5822.000000	18.440364
5820.000000	18.477054
5818.000000	18.516813
5816.000000	18.557065
5814.000000	18.595648
5812.000000	18.634295
5810.000000	18.673773
5808.000000	18.713995
5806.000000	18.754018
5804.000000	18.792040
5802.000000	18.831435
5800.000000	18.870677
5798.000000	18.910296
5796.000000	18.949044
5794.000000	18.988354
5792.000000	19.028836
5790.000000	19.070707
5788.000000	19.110811
5786.000000	19.149053
5784.000000	19.186946
5782.000000	19.226179
5780.000000	19.267580
5778.000000	19.308929
5776.000000	19.349667
5774.000000	19.389775
5772.000000	19.430321
5770.000000	19.470785
5768.000000	19.511824
5766.000000	19.553194
5764.000000	19.593477
5762.000000	19.632694
5760.000000	19.672880
5758.000000	19.714902
5756.000000	19.756386
5754.000000	19.795067
5752.000000	19.832207
5750.000000	19.871747
5748.000000	19.912213
5746.000000	19.953170
5744.000000	19.992783
5742.000000	20.033289
5740.000000	20.072278
5738.000000	20.109588
5736.000000	20.147686
5734.000000	20.187269
5732.000000	20.228151
5730.000000	20.268810
5728.000000	20.308780
5726.000000	20.348494
5724.000000	20.387118
5722.000000	20.425888
5720.000000	20.466224
5718.000000	20.508261
5716.000000	20.551149
5714.000000	20.594294
5712.000000	20.635322
5710.000000	20.676407
5708.000000	20.718587
5706.000000	20.761985
5704.000000	20.803824
5702.000000	20.844889
5700.000000	20.886999
5698.000000	20.930633
5696.000000	20.975454
5694.000000	21.019391
5692.000000	21.063445
5690.000000	21.107550
5688.000000	21.151955
5686.000000	21.196914
5684.000000	21.240335
5682.000000	21.283359
5680.000000	21.325758
5678.000000	21.369148
5676.000000	21.414199
5674.000000	21.458601
5672.000000	21.501675
5670.000000	21.544093
5668.000000	21.587802
5666.000000	21.632771
5664.000000	21.677844
5662.000000	21.722963
5660.000000	21.767881
5658.000000	21.810586
5656.000000	21.852694
5654.000000	21.897371
5652.000000	21.942841
5650.000000	21.987683
5648.000000	22.030363
5646.000000	22.074048
5644.000000	22.118002
5642.000000	22.161645
5640.000000	22.205336
5638.000000	22.249129
5636.000000	22.293248
5634.000000	22.337602
5632.000000	22.381606
5630.000000	22.425192
5628.000000	22.468334
5626.000000	22.512466
5624.000000	22.557943
5622.000000	22.603125
5620.000000	22.646689
5618.000000	22.690264
5616.000000	22.733456
5614.000000	22.777335
5612.000000	22.822025
5610.000000	22.867414
5608.000000	22.913242
5606.000000	22.957444
5604.000000	23.000965
5602.000000	23.045120
5600.000000	23.089181
5598.000000	23.133010
5596.000000	23.177507
5594.000000	23.223453
5592.000000	23.269067
5590.000000	23.314465
5588.000000	23.358735
5586.000000	23.403319
5584.000000	23.448767
5582.000000	23.495629
5580.000000	23.543105
5578.000000	23.589698
5576.000000	23.634772
5574.000000	23.679550
5572.000000	23.724825
5570.000000	23.771275
5568.000000	23.818601
5566.000000	23.866590
5564.000000	23.912447
5562.000000	23.958764
5560.000000	24.005248
5558.000000	24.051263
5556.000000	24.097069
5554.000000	24.141865
5552.000000	24.187611
5550.000000	24.234387
5548.000000	24.281261
5546.000000	24.328729
5544.000000	24.374922
5542.000000	24.421217
5540.000000	24.466201
5538.000000	24.510302
5536.000000	24.555556
5534.000000	24.602976
5532.000000	24.650379
5530.000000	24.696393
5528.000000	24.741590
5526.000000	24.787382
5524.000000	24.832823
5522.000000	24.877768
5520.000000	24.922267
5518.000000	24.969045
5516.000000	25.018021
5514.000000	25.067073
5512.000000	25.112960
5510.000000	25.156367
5508.000000	25.200127
5506.000000	25.245478
5504.000000	25.293728
5502.000000	25.343188
5500.000000	25.391037
5498.000000	25.436139
5496.000000	25.478342
5494.000000	25.520788
5492.000000	25.565424
5490.000000	25.614354
5488.000000	25.667135
5486.000000	25.719417
5484.000000	25.769576
5482.000000	25.817512
5480.000000	25.862690
5478.000000	25.904132
5476.000000	25.947363
5474.000000	25.996747
5472.000000	26.049279
5470.000000	26.099211
5468.000000	26.146492
5466.000000	26.192548
5464.000000	26.236798
5462.000000	26.281760
5460.000000	26.330960
5458.000000	26.382969
5456.000000	26.434004
5454.000000	26.482063
5452.000000	26.527005
5450.000000	26.568869
5448.000000	26.609564
5446.000000	26.653829
5444.000000	26.700293
5442.000000	26.751576
5440.000000	26.803429
5438.000000	26.853029
5436.000000	26.900932
5434.000000	26.947557
5432.000000	26.992208
5430.000000	27.036855
5428.000000	27.087709
5426.000000	27.145994
5424.000000	27.202028
5422.000000	27.252711
5420.000000	27.300400
5418.000000	27.341567
5416.000000	27.376740
5414.000000	27.413605
5412.000000	27.460538
5410.000000	27.517140
5408.000000	27.574156
5406.000000	27.628671
5404.000000	27.679074
5402.000000	27.727411
5400.000000	27.772603
5398.000000	27.813363
5396.000000	27.853180
5394.000000	27.900229
5392.000000	27.955586
5390.000000	28.011118
5388.000000	28.059354
5386.000000	28.107448
5384.000000	28.159911
5382.000000	28.213273
5380.000000	28.258530
5378.000000	28.300509
5376.000000	28.347890
5374.000000	28.405123
5372.000000	28.463726
5370.000000	28.517755
5368.000000	28.565721
5366.000000	28.612630
5364.000000	28.660850
5362.000000	28.712107
5360.000000	28.763618
5358.000000	28.808472
5356.000000	28.846374
5354.000000	28.889338
5352.000000	28.941707
5350.000000	28.994703
5348.000000	29.036850
5346.000000	29.075823
5344.000000	29.121813
5342.000000	29.170823
5340.000000	29.220100
5338.000000	29.273180
5336.000000	29.330349
5334.000000	29.387096
5332.000000	29.439259
5330.000000	29.488253
5328.000000	29.536295
5326.000000	29.586936
5324.000000	29.641921
5322.000000	29.695500
5320.000000	29.744827
5318.000000	29.792654
5316.000000	29.842224
5314.000000	29.894545
5312.000000	29.944763
5310.000000	29.989994
5308.000000	30.035094
5306.000000	30.085312
5304.000000	30.137724
5302.000000	30.188044
5300.000000	30.237302
5298.000000	30.289473
5296.000000	30.341767
5294.000000	30.389298
5292.000000	30.433322
5290.000000	30.480490
5288.000000	30.532947
5286.000000	30.587730
5284.000000	30.640618
5282.000000	30.693117
5280.000000	30.744529
5278.000000	30.796512
5276.000000	30.848760
5274.000000	30.900829
5272.000000	30.950429
5270.000000	30.996933
5268.000000	31.040025
5266.000000	31.082414
5264.000000	31.129013
5262.000000	31.183702
5260.000000	31.241833
5258.000000	31.293996
5256.000000	31.341837
5254.000000	31.392131
5252.000000	31.442148
5250.000000	31.488440
5248.000000	31.533856
5246.000000	31.585712
5244.000000	31.643530
5242.000000	31.702353
5240.000000	31.758873
5238.000000	31.810626
5236.000000	31.859868
5234.000000	31.908318
5232.000000	31.957493
5230.000000	32.005818
5228.000000	32.051011
5226.000000	32.097577
5224.000000	32.150228
5222.000000	32.207112
5220.000000	32.261109
5218.000000	32.312851
5216.000000	32.366320
5214.000000	32.419251
5212.000000	32.466108
5210.000000	32.504774
5208.000000	32.545644
5206.000000	32.599666
5204.000000	32.664266
5202.000000	32.727507
5200.000000	32.781167
5198.000000	32.830465
5196.000000	32.881950
5194.000000	32.937954
5192.000000	32.992514
5190.000000	33.043077
5188.000000	33.091197
5186.000000	33.142562
5184.000000	33.197887
5182.000000	33.254031
5180.000000	33.307918
5178.000000	33.361130
5176.000000	33.415003
5174.000000	33.468390
5172.000000	33.521103
5170.000000	33.574855
5168.000000	33.627211
5166.000000	33.678714
5164.000000	33.731157
5162.000000	33.786199
5160.000000	33.841236
5158.000000	33.893048
5156.000000	33.944721
5154.000000	33.998312
5152.000000	34.051786
5150.000000	34.103702
5148.000000	34.157107
5146.000000	34.212176
5144.000000	34.264165
5142.000000	34.314446
5140.000000	34.366481
5138.000000	34.421557
5136.000000	34.476437
5134.000000	34.529792
5132.000000	34.581463
5130.000000	34.633350
5128.000000	34.685720
5126.000000	34.738620
5124.000000	34.791698
5122.000000	34.844666
5120.000000	34.896809
5118.000000	34.949951
5116.000000	35.003951
5114.000000	35.057205
5112.000000	35.110679
5110.000000	35.166053
5108.000000	35.221443
5106.000000	35.274938
5104.000000	35.327548
5102.000000	35.381054
5100.000000	35.434217
5098.000000	35.488381
5096.000000	35.542912
5094.000000	35.598300
5092.000000	35.654453
5090.000000	35.710889
5088.000000	35.767505
5086.000000	35.823407
5084.000000	35.877590
5082.000000	35.931151
5080.000000	35.986690
5078.000000	36.042887
5076.000000	36.097365
5074.000000	36.152647
5072.000000	36.208255
5070.000000	36.263266
5068.000000	36.317562
5066.000000	36.373510
5064.000000	36.428679
5062.000000	36.482339
5060.000000	36.535622
5058.000000	36.591105
5056.000000	36.647233
5054.000000	36.702179
5052.000000	36.756500
5050.000000	36.811826
5048.000000	36.867883
5046.000000	36.924023
5044.000000	36.978615
5042.000000	37.032259
5040.000000	37.086430
5038.000000	37.141669
5036.000000	37.196994
5034.000000	37.251213
5032.000000	37.305272
5030.000000	37.359118
5028.000000	37.413772
5026.000000	37.468587
5024.000000	37.523031
5022.000000	37.576533
5020.000000	37.629309
5018.000000	37.683963
5016.000000	37.740515
5014.000000	37.797434
5012.000000	37.854300
5010.000000	37.911789
5008.000000	37.968691
5006.000000	38.024246
5004.000000	38.079235
5002.000000	38.134871
5000.000000	38.191372
4998.000000	38.248467
4996.000000	38.304512
4994.000000	38.360310
4992.000000	38.417258
4990.000000	38.474334
4988.000000	38.529855
4986.000000	38.585166
4984.000000	38.642303
4982.000000	38.700041
4980.000000	38.757654
4978.000000	38.815842
4976.000000	38.874102
4974.000000	38.930619
4972.000000	38.986511
4970.000000	39.042982
4968.000000	39.099809
4966.000000	39.156065
4964.000000	39.211676
4962.000000	39.267470
4960.000000	39.323826
4958.000000	39.380435
4956.000000	39.436123
4954.000000	39.492087
4952.000000	39.548595
4950.000000	39.604522
4948.000000	39.658750
4946.000000	39.713561
4944.000000	39.768435
4942.000000	39.823821
4940.000000	39.879465
4938.000000	39.936576
4936.000000	39.993449
4934.000000	40.049548
4932.000000	40.104463
4930.000000	40.159481
4928.000000	40.214784
4926.000000	40.270276
4924.000000	40.325112
4922.000000	40.380190
4920.000000	40.435777
4918.000000	40.492700
4916.000000	40.550599
4914.000000	40.608600
4912.000000	40.664808
4910.000000	40.720220
4908.000000	40.777163
4906.000000	40.836281
4904.000000	40.894586
4902.000000	40.951725
4900.000000	41.008211
4898.000000	41.065855
4896.000000	41.123871
4894.000000	41.181547
4892.000000	41.238487
4890.000000	41.296104
4888.000000	41.353262
4886.000000	41.410932
4884.000000	41.469822
4882.000000	41.529729
4880.000000	41.588255
4878.000000	41.646952
4876.000000	41.706256
4874.000000	41.764488
4872.000000	41.821121
4870.000000	41.879241
4868.000000	41.937400
4866.000000	41.992858
4864.000000	42.047051
4862.000000	42.103994
4860.000000	42.161257
4858.000000	42.218510
4856.000000	42.276206
4854.000000	42.334998
4852.000000	42.391430
4850.000000	42.446441
4848.000000	42.502108
4846.000000	42.558765
4844.000000	42.613924
4842.000000	42.670793
4840.000000	42.729955
4838.000000	42.787563
4836.000000	42.842187
4834.000000	42.898813
4832.000000	42.957489
4830.000000	43.014972
4828.000000	43.070996
4826.000000	43.127551
4824.000000	43.184538
4822.000000	43.242072
4820.000000	43.299167
4818.000000	43.355277
4816.000000	43.411895
4814.000000	43.471681
4812.000000	43.531563
4810.000000	43.590077
4808.000000	43.647499
4806.000000	43.704953
4804.000000	43.762570
4802.000000	43.822558
4800.000000	43.883376
4798.000000	43.942064
4796.000000	43.998458
4794.000000	44.055932
4792.000000	44.116344
4790.000000	44.178907
4788.000000	44.240451
4786.000000	44.299762
4784.000000	44.358390
4782.000000	44.417944
4780.000000	44.476743
4778.000000	44.534680
4776.000000	44.592745
4774.000000	44.651540
4772.000000	44.710410
4770.000000	44.769377
4768.000000	44.827311
4766.000000	44.883722
4764.000000	44.939952
4762.000000	44.997337
4760.000000	45.055312
4758.000000	45.113527
4756.000000	45.170427
4754.000000	45.226925
4752.000000	45.284445
4750.000000	45.343226
4748.000000	45.400767
4746.000000	45.458893
4744.000000	45.517283
4742.000000	45.575490
4740.000000	45.632775
4738.000000	45.690307
4736.000000	45.747972
4734.000000	45.806301
4732.000000	45.864220
4730.000000	45.920859
4728.000000	45.976018
4726.000000	46.032236
4724.000000	46.091050
4722.000000	46.151806
4720.000000	46.212088
4718.000000	46.272839
4716.000000	46.333017
4714.000000	46.392499
4712.000000	46.452679
4710.000000	46.514457
4708.000000	46.575820
4706.000000	46.637864
4704.000000	46.700162
4702.000000	46.760944
4700.000000	46.820829
4698.000000	46.882739
4696.000000	46.945545
4694.000000	47.007024
4692.000000	47.067533
4690.000000	47.128193
4688.000000	47.188147
4686.000000	47.247831
4684.000000	47.308492
4682.000000	47.369509
4680.000000	47.430306
4678.000000	47.491269
4676.000000	47.550631
4674.000000	47.610343
4672.000000	47.670572
4670.000000	47.730307
4668.000000	47.790277
4666.000000	47.851458
4664.000000	47.910686
4662.000000	47.969840
4660.000000	48.030138
4658.000000	48.090616
4656.000000	48.150743
4654.000000	48.211545
4652.000000	48.271770
4650.000000	48.331752
4648.000000	48.390971
4646.000000	48.451164
4644.000000	48.512405
4642.000000	48.572967
4640.000000	48.631739
4638.000000	48.691136
4636.000000	48.751627
4634.000000	48.813243
4632.000000	48.874280
4630.000000	48.934244
4628.000000	48.993515
4626.000000	49.053362
4624.000000	49.113452
4622.000000	49.174377
4620.000000	49.235953
4618.000000	49.298820
4616.000000	49.360064
4614.000000	49.420895
4612.000000	49.484367
4610.000000	49.549771
4608.000000	49.613561
4606.000000	49.677051
4604.000000	49.740799
4602.000000	49.804190
4600.000000	49.867146
4598.000000	49.930879
4596.000000	49.995495
4594.000000	50.060243
4592.000000	50.124746
4590.000000	50.189699
4588.000000	50.252694
4586.000000	50.314669
4584.000000	50.377076
4582.000000	50.440715
4580.000000	50.504464
4578.000000	50.567561
4576.000000	50.629776
4574.000000	50.693020
4572.000000	50.756928
4570.000000	50.819015
4568.000000	50.879598
4566.000000	50.941194
4564.000000	51.005203
4562.000000	51.070653
4560.000000	51.134488
4558.000000	51.195800
4556.000000	51.256346
4554.000000	51.317740
4552.000000	51.378873
4550.000000	51.440835
4548.000000	51.502086
4546.000000	51.562143
4544.000000	51.623380
4542.000000	51.687977
4540.000000	51.752240
4538.000000	51.813623
4536.000000	51.872194
4534.000000	51.933013
4532.000000	51.997753
4530.000000	52.062747
4528.000000	52.124666
4526.000000	52.185522
4524.000000	52.247100
4522.000000	52.311334
4520.000000	52.375715
4518.000000	52.438938
4516.000000	52.502663
4514.000000	52.568354
4512.000000	52.632593
4510.000000	52.695393
4508.000000	52.759289
4506.000000	52.824616
4504.000000	52.889043
4502.000000	52.954153
4500.000000	53.019758
4498.000000	53.084675
4496.000000	53.149873
4494.000000	53.215100
4492.000000	53.279312
4490.000000	53.343672
4488.000000	53.406972
4486.000000	53.469470
4484.000000	53.533296
4482.000000	53.598314
4480.000000	53.661831
4478.000000	53.724294
4476.000000	53.787520
4474.000000	53.851744
4472.000000	53.914555
4470.000000	53.976531
4468.000000	54.038497
4466.000000	54.101437
4464.000000	54.164518
4462.000000	54.225694
4460.000000	54.285721
4458.000000	54.348013
4456.000000	54.410412
4454.000000	54.471381
4452.000000	54.531711
4450.000000	54.592420
4448.000000	54.654236
4446.000000	54.717522
4444.000000	54.779596
4442.000000	54.841120
4440.000000	54.903965
4438.000000	54.967831
4436.000000	55.030035
4434.000000	55.090908
4432.000000	55.152085
4430.000000	55.214806
4428.000000	55.277717
4426.000000	55.341018
4424.000000	55.404459
4422.000000	55.468259
4420.000000	55.530828
4418.000000	55.592824
4416.000000	55.655401
4414.000000	55.720196
4412.000000	55.785068
4410.000000	55.848558
4408.000000	55.912215
4406.000000	55.977954
4404.000000	56.043294
4402.000000	56.107601
4400.000000	56.171231
4398.000000	56.234263
4396.000000	56.296998
4394.000000	56.360016
4392.000000	56.422216
4390.000000	56.483805
4388.000000	56.544377
4386.000000	56.605088
4384.000000	56.666399
4382.000000	56.728985
4380.000000	56.790717
4378.000000	56.850465
4376.000000	56.909207
4374.000000	56.969741
4372.000000	57.030550
4370.000000	57.091131
4368.000000	57.150494
4366.000000	57.209622
4364.000000	57.270149
4362.000000	57.331833
4360.000000	57.392252
4358.000000	57.453818
4356.000000	57.516228
4354.000000	57.578269
4352.000000	57.640995
4350.000000	57.704954
4348.000000	57.767986
4346.000000	57.831638
4344.000000	57.894844
4342.000000	57.955766
4340.000000	58.016432
4338.000000	58.079564
4336.000000	58.142847
4334.000000	58.206416
4332.000000	58.270652
4330.000000	58.334947
4328.000000	58.398880
4326.000000	58.464327
4324.000000	58.530831
4322.000000	58.597895
4320.000000	58.664731
4318.000000	58.731242
4316.000000	58.797929
4314.000000	58.866057
4312.000000	58.934175
4310.000000	59.001884
4308.000000	59.067895
4306.000000	59.132554
4304.000000	59.198259
4302.000000	59.265719
4300.000000	59.331616
4298.000000	59.395972
4296.000000	59.460291
4294.000000	59.524458
4292.000000	59.587875
4290.000000	59.652451
4288.000000	59.716590
4286.000000	59.778443
4284.000000	59.838500
4282.000000	59.898071
4280.000000	59.958217
4278.000000	60.019570
4276.000000	60.078627
4274.000000	60.135243
4272.000000	60.192559
4270.000000	60.252302
4268.000000	60.312960
4266.000000	60.374519
4264.000000	60.437155
4262.000000	60.499819
4260.000000	60.560331
4258.000000	60.620985
4256.000000	60.683072
4254.000000	60.746613
4252.000000	60.810036
4250.000000	60.873615
4248.000000	60.937756
4246.000000	61.002622
4244.000000	61.066812
4242.000000	61.129925
4240.000000	61.192396
4238.000000	61.257240
4236.000000	61.322977
4234.000000	61.387518
4232.000000	61.451403
4230.000000	61.516125
4228.000000	61.580737
4226.000000	61.645122
4224.000000	61.708352
4222.000000	61.771860
4220.000000	61.836446
4218.000000	61.901561
4216.000000	61.966596
4214.000000	62.032644
4212.000000	62.099198
4210.000000	62.166559
4208.000000	62.232835
4206.000000	62.298317
4204.000000	62.364511
4202.000000	62.432130
4200.000000	62.499300
4198.000000	62.567197
4196.000000	62.636304
4194.000000	62.704148
4192.000000	62.770143
4190.000000	62.838467
4188.000000	62.907008
4186.000000	62.973484
4184.000000	63.039881
4182.000000	63.107237
4180.000000	63.173030
4178.000000	63.238760
4176.000000	63.304755
4174.000000	63.368609
4172.000000	63.430375
4170.000000	63.494719
4168.000000	63.561267
4166.000000	63.626630
4164.000000	63.689939
4162.000000	63.753738
4160.000000	63.817981
4158.000000	63.882514
4156.000000	63.946875
4154.000000	64.010454
4152.000000	64.074890
4150.000000	64.142469
4148.000000	64.210134
4146.000000	64.274496
4144.000000	64.336200
4142.000000	64.400319
4140.000000	64.466995
4138.000000	64.532921
4136.000000	64.597957
4134.000000	64.664398
4132.000000	64.731934
4130.000000	64.799248
4128.000000	64.864717
4126.000000	64.929101
4124.000000	64.994268
4122.000000	65.061479
4120.000000	65.128410
4118.000000	65.194703
4116.000000	65.260124
4114.000000	65.325313
4112.000000	65.390676
4110.000000	65.457104
4108.000000	65.523222
4106.000000	65.588134
4104.000000	65.652534
4102.000000	65.717967
4100.000000	65.782180
4098.000000	65.844032
4096.000000	65.905179
4094.000000	65.969861
4092.000000	66.036887
4090.000000	66.104366
4088.000000	66.172962
4086.000000	66.243067
4084.000000	66.312676
4082.000000	66.382060
4080.000000	66.450895
4078.000000	66.518580
4076.000000	66.583203
4074.000000	66.647797
4072.000000	66.714457
4070.000000	66.780789
4068.000000	66.845543
4066.000000	66.910796
4064.000000	66.975532
4062.000000	67.040136
4060.000000	67.105223
4058.000000	67.171256
4056.000000	67.236731
4054.000000	67.301094
4052.000000	67.365116
4050.000000	67.430517
4048.000000	67.494484
4046.000000	67.557360
4044.000000	67.621307
4042.000000	67.687325
4040.000000	67.755471
4038.000000	67.824290
4036.000000	67.892319
4034.000000	67.960797
4032.000000	68.027742
4030.000000	68.094509
4028.000000	68.160798
4026.000000	68.227073
4024.000000	68.295512
4022.000000	68.364710
4020.000000	68.433503
4018.000000	68.504030
4016.000000	68.573144
4014.000000	68.639858
4012.000000	68.706952
4010.000000	68.775467
4008.000000	68.844200
4006.000000	68.914742
4004.000000	68.985630
4002.000000	69.055066
4000.000000	69.123093
3998.000000	69.189498
3996.000000	69.252478
3994.000000	69.313792
3992.000000	69.375952
3990.000000	69.442597
3988.000000	69.511943
3986.000000	69.578083
3984.000000	69.640588
3982.000000	69.704342
3980.000000	69.767777
3978.000000	69.827452
3976.000000	69.885999
3974.000000	69.948495
3972.000000	70.012779
3970.000000	70.077052
3968.000000	70.140739
3966.000000	70.201040
3964.000000	70.256378
3962.000000	70.314164
3960.000000	70.378564
3958.000000	70.445443
3956.000000	70.509768
3954.000000	70.566633
3952.000000	70.610359
3950.000000	70.651655
3948.000000	70.710855
3946.000000	70.776646
3944.000000	70.830713
3942.000000	70.900733
3940.000000	70.992499
3938.000000	71.072459
3936.000000	71.117801
3934.000000	71.137923
3932.000000	71.183527
3930.000000	71.276170
3928.000000	71.361763
3926.000000	71.416435
3924.000000	71.475837
3922.000000	71.533964
3920.000000	71.562706
3918.000000	71.605816
3916.000000	71.715040
3914.000000	71.851002
3912.000000	71.951969
3910.000000	72.010301
3908.000000	71.994387
3906.000000	71.887180
3904.000000	71.800863
3902.000000	71.836361
3900.000000	71.987262
3898.000000	72.207474
3896.000000	72.374326
3894.000000	72.383787
3892.000000	72.359266
3890.000000	72.428520
3888.000000	72.447091
3886.000000	72.430514
3884.000000	72.537289
3882.000000	72.657848
3880.000000	72.763450
3878.000000	72.892481
3876.000000	72.941873
3874.000000	72.894731
3872.000000	72.777595
3870.000000	72.753081
3868.000000	72.904690
3866.000000	73.031369
3864.000000	73.127482
3862.000000	73.292465
3860.000000	73.432732
3858.000000	73.298822
3856.000000	72.761817
3854.000000	72.398375
3852.000000	72.774720
3850.000000	73.456245
3848.000000	73.841725
3846.000000	73.915987
3844.000000	73.879703
3842.000000	73.785175
3840.000000	73.583256
3838.000000	73.499904
3836.000000	73.730730
3834.000000	74.026820
3832.000000	74.215308
3830.000000	74.362399
3828.000000	74.465548
3826.000000	74.502844
3824.000000	74.404211
3822.000000	74.272809
3820.000000	74.301190
3818.000000	74.314722
3816.000000	74.379838
3814.000000	74.714978
3812.000000	75.010797
3810.000000	74.994291
3808.000000	74.853599
3806.000000	74.863960
3804.000000	74.839344
3802.000000	74.751791
3800.000000	74.941844
3798.000000	75.244271
3796.000000	75.434335
3794.000000	75.590481
3792.000000	75.709624
3790.000000	75.779223
3788.000000	75.819588
3786.000000	75.850879
3784.000000	75.892408
3782.000000	75.911673
3780.000000	75.929274
3778.000000	76.028163
3776.000000	76.156019
3774.000000	76.202578
3772.000000	76.150282
3770.000000	76.123590
3768.000000	76.197746
3766.000000	76.308282
3764.000000	76.410886
3762.000000	76.442764
3760.000000	76.432525
3758.000000	76.484075
3756.000000	76.455770
3754.000000	76.147924
3752.000000	75.810491
3750.000000	75.845003
3748.000000	76.011622
3746.000000	75.909558
3744.000000	76.027473
3742.000000	76.579061
3740.000000	76.883379
3738.000000	76.767390
3736.000000	76.653628
3734.000000	76.741005
3732.000000	76.976630
3730.000000	77.250651
3728.000000	77.387528
3726.000000	77.429953
3724.000000	77.500162
3722.000000	77.597894
3720.000000	77.713072
3718.000000	77.815777
3716.000000	77.804234
3714.000000	77.619908
3712.000000	77.504315
3710.000000	77.670303
3708.000000	77.957218
3706.000000	78.137579
3704.000000	78.161478
3702.000000	78.170486
3700.000000	78.278776
3698.000000	78.401186
3696.000000	78.454280
3694.000000	78.400115
3692.000000	78.184819
3690.000000	77.936168
3688.000000	78.022864
3686.000000	78.425551
3684.000000	78.709752
3682.000000	78.758586
3680.000000	78.640404
3678.000000	78.325063
3676.000000	78.100245
3674.000000	78.210689
3672.000000	78.297905
3670.000000	78.390730
3668.000000	78.729063
3666.000000	79.043585
3664.000000	79.170402
3662.000000	79.204155
3660.000000	79.163085
3658.000000	79.034274
3656.000000	78.994159
3654.000000	79.019583
3652.000000	78.814553
3650.000000	78.569205
3648.000000	78.697126
3646.000000	79.073331
3644.000000	79.342911
3642.000000	79.441933
3640.000000	79.475626
3638.000000	79.490467
3636.000000	79.478532
3634.000000	79.418230
3632.000000	79.193739
3630.000000	78.903552
3628.000000	78.984746
3626.000000	79.348448
3624.000000	79.532193
3622.000000	79.445203
3620.000000	79.308897
3618.000000	79.337776
3616.000000	79.427795
3614.000000	79.424341
3612.000000	79.371900
3610.000000	79.337251
3608.000000	79.408085
3606.000000	79.562643
3604.000000	79.648836
3602.000000	79.643115
3600.000000	79.623275
3598.000000	79.608637
3596.000000	79.590960
3594.000000	79.601027
3592.000000	79.592271
3590.000000	79.481277
3588.000000	79.391379
3586.000000	79.468684
3584.000000	79.603857
3582.000000	79.666021
3580.000000	79.673383
3578.000000	79.672177
3576.000000	79.672061
3574.000000	79.671343
3572.000000	79.637223
3570.000000	79.520440
3568.000000	79.402927
3566.000000	79.429444
3564.000000	79.540410
3562.000000	79.605146
3560.000000	79.624099
3558.000000	79.634145
3556.000000	79.626420
3554.000000	79.596984
3552.000000	79.578115
3550.000000	79.566688
3548.000000	79.528629
3546.000000	79.499693
3544.000000	79.519708
3542.000000	79.554337
3540.000000	79.561013
3538.000000	79.540271
3536.000000	79.520781
3534.000000	79.510077
3532.000000	79.482240
3530.000000	79.433475
3528.000000	79.386712
3526.000000	79.347501
3524.000000	79.312146
3522.000000	79.291827
3520.000000	79.277518
3518.000000	79.254669
3516.000000	79.224892
3514.000000	79.187442
3512.000000	79.138334
3510.000000	79.088780
3508.000000	79.051465
3506.000000	79.000320
3504.000000	78.930094
3502.000000	78.881923
3500.000000	78.851624
3498.000000	78.807283
3496.000000	78.755305
3494.000000	78.706848
3492.000000	78.657302
3490.000000	78.604870
3488.000000	78.555256
3486.000000	78.514016
3484.000000	78.473641
3482.000000	78.439923
3480.000000	78.427624
3478.000000	78.426685
3476.000000	78.425464
3474.000000	78.429301
3472.000000	78.439223
3470.000000	78.449269
3468.000000	78.465767
3466.000000	78.496692
3464.000000	78.532704
3462.000000	78.568874
3460.000000	78.608434
3458.000000	78.647539
3456.000000	78.680538
3454.000000	78.709502
3452.000000	78.732483
3450.000000	78.740745
3448.000000	78.746139
3446.000000	78.776089
3444.000000	78.825515
3442.000000	78.883589
3440.000000	78.955181
3438.000000	79.041160
3436.000000	79.142961
3434.000000	79.264266
3432.000000	79.400083
3430.000000	79.539899
3428.000000	79.678479
3426.000000	79.811965
3424.000000	79.931372
3422.000000	80.038037
3420.000000	80.145903
3418.000000	80.256287
3416.000000	80.355097
3414.000000	80.438690
3412.000000	80.513583
3410.000000	80.580732
3408.000000	80.641057
3406.000000	80.698192
3404.000000	80.751305
3402.000000	80.802582
3400.000000	80.862512
3398.000000	80.937040
3396.000000	81.015688
3394.000000	81.085485
3392.000000	81.152565
3390.000000	81.227842
3388.000000	81.302119
3386.000000	81.365798
3384.000000	81.424132
3382.000000	81.481984
3380.000000	81.536726
3378.000000	81.588373
3376.000000	81.638668
3374.000000	81.687646
3372.000000	81.729165
3370.000000	81.763481
3368.000000	81.804733
3366.000000	81.853862
3364.000000	81.901865
3362.000000	81.948149
3360.000000	81.993959
3358.000000	82.038107
3356.000000	82.081133
3354.000000	82.123865
3352.000000	82.163621
3350.000000	82.205311
3348.000000	82.251240
3346.000000	82.294251
3344.000000	82.334611
3342.000000	82.374245
3340.000000	82.411328
3338.000000	82.447838
3336.000000	82.491063
3334.000000	82.537315
3332.000000	82.579325
3330.000000	82.617647
3328.000000	82.653094
3326.000000	82.686804
3324.000000	82.724128
3322.000000	82.763792
3320.000000	82.801484
3318.000000	82.838266
3316.000000	82.873745
3314.000000	82.909277
3312.000000	82.944028
3310.000000	82.972735
3308.000000	82.999065
3306.000000	83.030920
3304.000000	83.072439
3302.000000	83.117993
3300.000000	83.158013
3298.000000	83.193452
3296.000000	83.229202
3294.000000	83.263237
3292.000000	83.297960
3290.000000	83.340200
3288.000000	83.382911
3286.000000	83.420217
3284.000000	83.458304
3282.000000	83.498975
3280.000000	83.538566
3278.000000	83.574117
3276.000000	83.607421
3274.000000	83.645036
3272.000000	83.687565
3270.000000	83.731886
3268.000000	83.776902
3266.000000	83.820803
3264.000000	83.865392
3262.000000	83.911226
3260.000000	83.956792
3258.000000	84.000530
3256.000000	84.042621
3254.000000	84.089000
3252.000000	84.140771
3250.000000	84.190232
3248.000000	84.234839
3246.000000	84.279951
3244.000000	84.331987
3242.000000	84.387206
3240.000000	84.437939
3238.000000	84.486414
3236.000000	84.533122
3234.000000	84.578584
3232.000000	84.629845
3230.000000	84.684729
3228.000000	84.736506
3226.000000	84.786388
3224.000000	84.835215
3222.000000	84.880989
3220.000000	84.927835
3218.000000	84.979222
3216.000000	85.029599
3214.000000	85.078049
3212.000000	85.128211
3210.000000	85.182157
3208.000000	85.242371
3206.000000	85.305834
3204.000000	85.372368
3202.000000	85.442038
3200.000000	85.511669
3198.000000	85.580725
3196.000000	85.653584
3194.000000	85.728619
3192.000000	85.803300
3190.000000	85.876353
3188.000000	85.947627
3186.000000	86.018383
3184.000000	86.089121
3182.000000	86.160460
3180.000000	86.230526
3178.000000	86.300616
3176.000000	86.373697
3174.000000	86.447430
3172.000000	86.519982
3170.000000	86.593290
3168.000000	86.668428
3166.000000	86.745222
3164.000000	86.822817
3162.000000	86.900571
3160.000000	86.978845
3158.000000	87.056146
3156.000000	87.131426
3154.000000	87.204791
3152.000000	87.280704
3150.000000	87.363358
3148.000000	87.445255
3146.000000	87.522875
3144.000000	87.598674
3142.000000	87.671988
3140.000000	87.742289
3138.000000	87.813495
3136.000000	87.884720
3134.000000	87.952355
3132.000000	88.019620
3130.000000	88.087737
3128.000000	88.153350
3126.000000	88.216181
3124.000000	88.274732
3122.000000	88.328503
3120.000000	88.381045
3118.000000	88.434155
3116.000000	88.491522
3114.000000	88.551139
3112.000000	88.607727
3110.000000	88.660615
3108.000000	88.715506
3106.000000	88.773816
3104.000000	88.831653
3102.000000	88.890818
3100.000000	88.954835
3098.000000	89.019654
3096.000000	89.084650
3094.000000	89.152733
3092.000000	89.218253
3090.000000	89.278724
3088.000000	89.337925
3086.000000	89.392771
3084.000000	89.443052
3082.000000	89.488811
3080.000000	89.530101
3078.000000	89.569882
3076.000000	89.607940
3074.000000	89.637451
3072.000000	89.655433
3070.000000	89.664703
3068.000000	89.672346
3066.000000	89.689879
3064.000000	89.726401
3062.000000	89.775445
3060.000000	89.830114
3058.000000	89.887740
3056.000000	89.949191
3054.000000	90.014193
3052.000000	90.074345
3050.000000	90.126113
3048.000000	90.174201
3046.000000	90.216036
3044.000000	90.248838
3042.000000	90.277443
3040.000000	90.304102
3038.000000	90.323571
3036.000000	90.335349
3034.000000	90.339942
3032.000000	90.331995
3030.000000	90.300292
3028.000000	90.234038
3026.000000	90.130711
3024.000000	90.006379
3022.000000	89.892489
3020.000000	89.827397
3018.000000	89.853062
3016.000000	89.994623
3014.000000	90.232166
3012.000000	90.515034
3010.000000	90.788244
3008.000000	91.011142
3006.000000	91.171093
3004.000000	91.285272
3002.000000	91.368729
3000.000000	91.427530
2998.000000	91.469852
2996.000000	91.501602
2994.000000	91.523076
2992.000000	91.536632
2990.000000	91.541153
2988.000000	91.528652
2986.000000	91.495200
2984.000000	91.440558
2982.000000	91.358351
2980.000000	91.242145
2978.000000	91.082632
2976.000000	90.862986
2974.000000	90.566513
2972.000000	90.182147
2970.000000	89.710886
2968.000000	89.196844
2966.000000	88.722161
2964.000000	88.373966
2962.000000	88.207109
2960.000000	88.221197
2958.000000	88.358892
2956.000000	88.547298
2954.000000	88.731932
2952.000000	88.877097
2950.000000	88.948613
2948.000000	88.913716
2946.000000	88.754137
2944.000000	88.467378
2942.000000	88.064427
2940.000000	87.580255
2938.000000	87.076341
2936.000000	86.612020
2934.000000	86.198322
2932.000000	85.806528
2930.000000	85.423269
2928.000000	85.099235
2926.000000	84.937110
2924.000000	85.043293
2922.000000	85.459511
2920.000000	86.130262
2918.000000	86.939945
2916.000000	87.782572
2914.000000	88.576968
2912.000000	89.261447
2910.000000	89.806326
2908.000000	90.230538
2906.000000	90.575385
2904.000000	90.875380
2902.000000	91.149530
2900.000000	91.404044
2898.000000	91.640881
2896.000000	91.865674
2894.000000	92.080241
2892.000000	92.283563
2890.000000	92.469470
2888.000000	92.632632
2886.000000	92.763578
2884.000000	92.854015
2882.000000	92.899594
2880.000000	92.899475
2878.000000	92.848785
2876.000000	92.742141
2874.000000	92.571457
2872.000000	92.325109
2870.000000	91.973268
2868.000000	91.494292
2866.000000	90.929702
2864.000000	90.396946
2862.000000	90.047642
2860.000000	89.972427
2858.000000	90.138096
2856.000000	90.438495
2854.000000	90.793581
2852.000000	91.203591
2850.000000	91.708506
2848.000000	92.308136
2846.000000	92.919918
2844.000000	93.453926
2842.000000	93.881469
2840.000000	94.218733
2838.000000	94.488206
2836.000000	94.708509
2834.000000	94.891985
2832.000000	95.046889
2830.000000	95.182627
2828.000000	95.305412
2826.000000	95.415381
2824.000000	95.516677
2822.000000	95.610991
2820.000000	95.699532
2818.000000	95.778830
2816.000000	95.850391
2814.000000	95.915772
2812.000000	95.975253
2810.000000	96.029588
2808.000000	96.082135
2806.000000	96.132869
2804.000000	96.181732
2802.000000	96.227552
2800.000000	96.271672
2798.000000	96.316215
2796.000000	96.359621
2794.000000	96.402420
2792.000000	96.451901
2790.000000	96.509253
2788.000000	96.578184
2786.000000	96.660459
2784.000000	96.746728
2782.000000	96.828095
2780.000000	96.904947
2778.000000	96.973961
2776.000000	97.037185
2774.000000	97.096854
2772.000000	97.153178
2770.000000	97.207064
2768.000000	97.260138
2766.000000	97.311775
2764.000000	97.361836
2762.000000	97.408916
2760.000000	97.455687
2758.000000	97.502654
2756.000000	97.548418
2754.000000	97.591362
2752.000000	97.631907
2750.000000	97.670434
2748.000000	97.709561
2746.000000	97.748435
2744.000000	97.786078
2742.000000	97.822537
2740.000000	97.859690
2738.000000	97.896164
2736.000000	97.931914
2734.000000	97.968178
2732.000000	98.003489
2730.000000	98.038846
2728.000000	98.076997
2726.000000	98.111552
2724.000000	98.143345
2722.000000	98.176686
2720.000000	98.211849
2718.000000	98.245316
2716.000000	98.277540
2714.000000	98.306246
2712.000000	98.332279
2710.000000	98.357788
2708.000000	98.385333
2706.000000	98.413248
2704.000000	98.445462
2702.000000	98.485142
2700.000000	98.531176
2698.000000	98.579533
2696.000000	98.628514
2694.000000	98.674656
2692.000000	98.718903
2690.000000	98.762698
2688.000000	98.806523
2686.000000	98.848612
2684.000000	98.888818
2682.000000	98.926975
2680.000000	98.965217
2678.000000	99.003438
2676.000000	99.041270
2674.000000	99.074865
2672.000000	99.104687
2670.000000	99.135090
2668.000000	99.168045
2666.000000	99.199397
2664.000000	99.231373
2662.000000	99.263731
2660.000000	99.296086
2658.000000	99.327480
2656.000000	99.360554
2654.000000	99.398075
2652.000000	99.440303
2650.000000	99.482775
2648.000000	99.523569
2646.000000	99.563930
2644.000000	99.605766
2642.000000	99.644581
2640.000000	99.683539
2638.000000	99.721333
2636.000000	99.755800
2634.000000	99.789199
2632.000000	99.824940
2630.000000	99.858083
2628.000000	99.887750
2626.000000	99.915482
2624.000000	99.945689
2622.000000	99.977323
2620.000000	100.008423
2618.000000	100.037408
2616.000000	100.065532
2614.000000	100.093489
2612.000000	100.120013
2610.000000	100.143261
2608.000000	100.166641
2606.000000	100.187597
2604.000000	100.204940
2602.000000	100.219595
2600.000000	100.231614
2598.000000	100.241824
2596.000000	100.254647
2594.000000	100.271511
2592.000000	100.296142
2590.000000	100.330571
2588.000000	100.376619
2586.000000	100.430329
2584.000000	100.490353
2582.000000	100.553618
2580.000000	100.617479
2578.000000	100.678346
2576.000000	100.734201
2574.000000	100.783924
2572.000000	100.829594
2570.000000	100.870767
2568.000000	100.909633
2566.000000	100.947076
2564.000000	100.983198
2562.000000	101.014668
2560.000000	101.045735
2558.000000	101.076007
2556.000000	101.106007
2554.000000	101.135982
2552.000000	101.164388
2550.000000	101.190228
2548.000000	101.218435
2546.000000	101.248170
2544.000000	101.277390
2542.000000	101.305704
2540.000000	101.334032
2538.000000	101.360719
2536.000000	101.389259
2534.000000	101.419547
2532.000000	101.449865
2530.000000	101.477329
2528.000000	101.504014
2526.000000	101.530950
2524.000000	101.558448
2522.000000	101.584756
2520.000000	101.612070
2518.000000	101.638390
2516.000000	101.663107
2514.000000	101.686529
2512.000000	101.713019
2510.000000	101.739551
2508.000000	101.764530
2506.000000	101.786742
2504.000000	101.807331
2502.000000	101.828730
2500.000000	101.854922
2498.000000	101.883837
2496.000000	101.913420
2494.000000	101.942458
2492.000000	101.971359
2490.000000	101.998093
2488.000000	102.025234
2486.000000	102.053858
2484.000000	102.083390
2482.000000	102.110714
2480.000000	102.137250
2478.000000	102.163611
2476.000000	102.190844
2474.000000	102.213732
2472.000000	102.234409
2470.000000	102.254541
2468.000000	102.275781
2466.000000	102.296699
2464.000000	102.315885
2462.000000	102.333725
2460.000000	102.353661
2458.000000	102.371470
2456.000000	102.388777
2454.000000	102.406155
2452.000000	102.426695
2450.000000	102.449164
2448.000000	102.469563
2446.000000	102.485085
2444.000000	102.501459
2442.000000	102.519955
2440.000000	102.539824
2438.000000	102.557613
2436.000000	102.574151
2434.000000	102.589536
2432.000000	102.604283
2430.000000	102.618192
2428.000000	102.632523
2426.000000	102.646309
2424.000000	102.662930
2422.000000	102.681636
2420.000000	102.700414
2418.000000	102.715271
2416.000000	102.729308
2414.000000	102.742411
2412.000000	102.756622
2410.000000	102.770342
2408.000000	102.786411
2406.000000	102.802555
2404.000000	102.819428
2402.000000	102.836715
2400.000000	102.854969
2398.000000	102.873350
2396.000000	102.893663
2394.000000	102.911472
2392.000000	102.929517
2390.000000	102.949032
2388.000000	102.965395
2386.000000	102.972518
2384.000000	102.970588
2382.000000	102.949640
2380.000000	102.900829
2378.000000	102.814183
2376.000000	102.688227
2374.000000	102.527818
2372.000000	102.342862
2370.000000	102.145609
2368.000000	101.955726
2366.000000	101.795990
2364.000000	101.692425
2362.000000	101.661232
2360.000000	101.710322
2358.000000	101.839246
2356.000000	102.043264
2354.000000	102.307367
2352.000000	102.601152
2350.000000	102.815245
2348.000000	102.809682
2346.000000	102.628694
2344.000000	102.431879
2342.000000	102.288903
2340.000000	102.208240
2338.000000	102.173892
2336.000000	102.175149
2334.000000	102.202521
2332.000000	102.252702
2330.000000	102.326519
2328.000000	102.419706
2326.000000	102.518301
2324.000000	102.621058
2322.000000	102.723979
2320.000000	102.822724
2318.000000	102.913177
2316.000000	102.994317
2314.000000	103.063760
2312.000000	103.123817
2310.000000	103.176946
2308.000000	103.225610
2306.000000	103.264419
2304.000000	103.296411
2302.000000	103.324973
2300.000000	103.350431
2298.000000	103.370865
2296.000000	103.391096
2294.000000	103.406032
2292.000000	103.419366
2290.000000	103.432597
2288.000000	103.446060
2286.000000	103.456269
2284.000000	103.462137
2282.000000	103.463781
2280.000000	103.464819
2278.000000	103.463635
2276.000000	103.462359
2274.000000	103.458431
2272.000000	103.454225
2270.000000	103.449455
2268.000000	103.446830
2266.000000	103.444318
2264.000000	103.441699
2262.000000	103.439090
2260.000000	103.440223
2258.000000	103.441197
2256.000000	103.442787
2254.000000	103.444227
2252.000000	103.450608
2250.000000	103.458922
2248.000000	103.469626
2246.000000	103.481081
2244.000000	103.494743
2242.000000	103.506795
2240.000000	103.522819
2238.000000	103.540267
2236.000000	103.555294
2234.000000	103.568295
2232.000000	103.585316
2230.000000	103.600721
2228.000000	103.614851
2226.000000	103.627226
2224.000000	103.640693
2222.000000	103.651741
2220.000000	103.662621
2218.000000	103.670971
2216.000000	103.679389
2214.000000	103.684925
2212.000000	103.690908
2210.000000	103.697493
2208.000000	103.706123
2206.000000	103.711951
2204.000000	103.718973
2202.000000	103.725796
2200.000000	103.733317
2198.000000	103.737766
2196.000000	103.741829
2194.000000	103.742870
2192.000000	103.745848
2190.000000	103.749845
2188.000000	103.752460
2186.000000	103.751375
2184.000000	103.752532
2182.000000	103.753732
2180.000000	103.756019
2178.000000	103.755912
2176.000000	103.755573
2174.000000	103.748130
2172.000000	103.726843
2170.000000	103.703768
2168.000000	103.715511
2166.000000	103.740999
2164.000000	103.753099
2162.000000	103.754225
2160.000000	103.754493
2158.000000	103.754548
2156.000000	103.756983
2154.000000	103.757364
2152.000000	103.757997
2150.000000	103.755850
2148.000000	103.755006
2146.000000	103.755026
2144.000000	103.756998
2142.000000	103.758491
2140.000000	103.759920
2138.000000	103.758039
2136.000000	103.758101
2134.000000	103.759120
2132.000000	103.760027
2130.000000	103.760190
2128.000000	103.761868
2126.000000	103.761376
2124.000000	103.760788
2122.000000	103.761615
2120.000000	103.766567
2118.000000	103.773016
2116.000000	103.778615
2114.000000	103.784413
2112.000000	103.795319
2110.000000	103.808024
2108.000000	103.822870
2106.000000	103.838232
2104.000000	103.852742
2102.000000	103.864777
2100.000000	103.877648
2098.000000	103.890704
2096.000000	103.906216
2094.000000	103.920568
2092.000000	103.936368
2090.000000	103.947185
2088.000000	103.964220
2086.000000	103.980118
2084.000000	103.997725
2082.000000	104.013981
2080.000000	104.032866
2078.000000	104.047815
2076.000000	104.065431
2074.000000	104.082026
2072.000000	104.102300
2070.000000	104.123299
2068.000000	104.142328
2066.000000	104.153585
2064.000000	104.174897
2062.000000	104.201981
2060.000000	104.227385
2058.000000	104.250537
2056.000000	104.274318
2054.000000	104.294067
2052.000000	104.316651
2050.000000	104.339413
2048.000000	104.362487
2046.000000	104.381994
2044.000000	104.399534
2042.000000	104.411474
2040.000000	104.431228
2038.000000	104.450860
2036.000000	104.466142
2034.000000	104.474707
2032.000000	104.473398
2030.000000	104.458377
2028.000000	104.471888
2026.000000	104.510794
2024.000000	104.536068
2022.000000	104.545437
2020.000000	104.545501
2018.000000	104.543593
2016.000000	104.565470
2014.000000	104.598853
2012.000000	104.625182
2010.000000	104.642413
2008.000000	104.659019
2006.000000	104.673431
2004.000000	104.685524
2002.000000	104.691751
2000.000000	104.697143
1998.000000	104.703539
1996.000000	104.705796
1994.000000	104.677166
1992.000000	104.653009
1990.000000	104.675623
1988.000000	104.698808
1986.000000	104.705218
1984.000000	104.703514
1982.000000	104.693945
1980.000000	104.683385
1978.000000	104.670270
1976.000000	104.657235
1974.000000	104.642399
1972.000000	104.624537
1970.000000	104.592531
1968.000000	104.547428
1966.000000	104.528198
1964.000000	104.524729
1962.000000	104.468665
1960.000000	104.348052
1958.000000	104.318094
1956.000000	104.399706
1954.000000	104.429895
1952.000000	104.413155
1950.000000	104.382023
1948.000000	104.359190
1946.000000	104.321062
1944.000000	104.249743
1942.000000	104.215780
1940.000000	104.259252
1938.000000	104.269314
1936.000000	104.250307
1934.000000	104.222262
1932.000000	104.197320
1930.000000	104.169808
1928.000000	104.144256
1926.000000	104.095525
1924.000000	104.020076
1922.000000	103.970677
1920.000000	103.889760
1918.000000	103.788312
1916.000000	103.839772
1914.000000	103.873060
1912.000000	103.820219
1910.000000	103.741048
1908.000000	103.697328
1906.000000	103.662512
1904.000000	103.618106
1902.000000	103.565282
1900.000000	103.520852
1898.000000	103.465265
1896.000000	103.406931
1894.000000	103.373320
1892.000000	103.328519
1890.000000	103.245981
1888.000000	103.265778
1886.000000	103.303824
1884.000000	103.299394
1882.000000	103.280559
1880.000000	103.261352
1878.000000	103.235609
1876.000000	103.215435
1874.000000	103.181357
1872.000000	103.072998
1870.000000	102.865348
1868.000000	102.834798
1866.000000	102.965252
1864.000000	103.027294
1862.000000	103.006257
1860.000000	102.975859
1858.000000	102.945352
1856.000000	102.920994
1854.000000	102.883373
1852.000000	102.844415
1850.000000	102.780044
1848.000000	102.665174
1846.000000	102.366927
1844.000000	102.177986
1842.000000	102.401505
1840.000000	102.546453
1838.000000	102.496736
1836.000000	102.445138
1834.000000	102.377335
1832.000000	102.182920
1830.000000	101.986681
1828.000000	102.001935
1826.000000	101.957432
1824.000000	101.944636
1822.000000	101.997864
1820.000000	101.965463
1818.000000	101.886498
1816.000000	101.822665
1814.000000	101.732656
1812.000000	101.591512
1810.000000	101.493550
1808.000000	101.461919
1806.000000	101.389230
1804.000000	101.238871
1802.000000	101.025957
1800.000000	100.901734
1798.000000	100.871153
1796.000000	100.744449
1794.000000	100.355063
1792.000000	100.124350
1790.000000	100.298998
1788.000000	100.372323
1786.000000	100.194402
1784.000000	100.064513
1782.000000	99.970497
1780.000000	99.866928
1778.000000	99.797761
1776.000000	99.577070
1774.000000	99.044587
1772.000000	98.764682
1770.000000	98.966244
1768.000000	99.067379
1766.000000	99.168419
1764.000000	99.036804
1762.000000	98.768778
1760.000000	98.752800
1758.000000	98.659094
1756.000000	98.522298
1754.000000	98.331659
1752.000000	97.839294
1750.000000	97.638008
1748.000000	97.712325
1746.000000	97.694939
1744.000000	97.545012
1742.000000	97.272759
1740.000000	97.012407
1738.000000	96.948877
1736.000000	96.367436
1734.000000	95.781791
1732.000000	96.287612
1730.000000	96.769935
1728.000000	96.869868
1726.000000	96.843032
1724.000000	96.758407
1722.000000	96.627904
1720.000000	96.077068
1718.000000	95.319655
1716.000000	95.433828
1714.000000	95.943159
1712.000000	96.170424
1710.000000	96.097205
1708.000000	95.854103
1706.000000	95.569606
1704.000000	95.404214
1702.000000	94.697001
1700.000000	94.168335
1698.000000	94.331875
1696.000000	94.257062
1694.000000	94.884502
1692.000000	95.435234
1690.000000	95.381467
1688.000000	95.070511
1686.000000	94.111025
1684.000000	93.741531
1682.000000	94.561465
1680.000000	95.016305
1678.000000	94.883981
1676.000000	94.460176
1674.000000	94.428907
1672.000000	94.434327
1670.000000	94.153704
1668.000000	94.266434
1666.000000	94.450955
1664.000000	94.216874
1662.000000	94.082224
1660.000000	94.196882
1658.000000	94.095357
1656.000000	93.280149
1654.000000	91.795077
1652.000000	91.860262
1650.000000	92.962199
1648.000000	92.848786
1646.000000	92.597162
1644.000000	92.981276
1642.000000	93.184409
1640.000000	92.986884
1638.000000	92.400560
1636.000000	91.719841
1634.000000	91.929089
1632.000000	92.308960
1630.000000	92.128371
1628.000000	91.779569
1626.000000	91.405971
1624.000000	90.869681
1622.000000	90.492054
1620.000000	90.088623
1618.000000	89.210562
1616.000000	88.738901
1614.000000	88.769544
1612.000000	88.312018
1610.000000	87.692071
1608.000000	87.371777
1606.000000	87.398973
1604.000000	87.593202
1602.000000	87.835417
1600.000000	88.069424
1598.000000	88.275715
1596.000000	88.427531
1594.000000	88.543494
1592.000000	88.608332
1590.000000	88.612651
1588.000000	88.575764
1586.000000	88.509653
1584.000000	88.435269
1582.000000	88.384078
1580.000000	88.264073
1578.000000	87.685623
1576.000000	87.271691
1574.000000	87.775846
1572.000000	87.912581
1570.000000	87.573607
1568.000000	87.561808
1566.000000	87.546282
1564.000000	87.263000
1562.000000	86.391822
1560.000000	85.039159
1558.000000	85.018753
1556.000000	85.942327
1554.000000	86.496858
1552.000000	86.947202
1550.000000	87.232156
1548.000000	87.413096
1546.000000	87.372204
1544.000000	87.153387
1542.000000	86.714376
1540.000000	86.499656
1538.000000	87.385765
1536.000000	88.263355
1534.000000	88.329971
1532.000000	88.571782
1530.000000	88.803425
1528.000000	88.690266
1526.000000	88.491447
1524.000000	88.224158
1522.000000	87.728814
1520.000000	87.770672
1518.000000	87.956535
1516.000000	87.863869
1514.000000	87.775158
1512.000000	87.582366
1510.000000	87.156480
1508.000000	86.120784
1506.000000	85.481252
1504.000000	85.570581
1502.000000	84.675569
1500.000000	82.252038
1498.000000	79.016386
1496.000000	76.510220
1494.000000	76.069248
1492.000000	77.156192
1490.000000	78.926806
1488.000000	80.849540
1486.000000	82.408668
1484.000000	83.431745
1482.000000	83.948183
1480.000000	84.188034
1478.000000	84.137465
1476.000000	83.843093
1474.000000	83.382307
1472.000000	83.194687
1470.000000	83.358417
1468.000000	83.184448
1466.000000	82.635363
1464.000000	82.249292
1462.000000	81.955393
1460.000000	81.057914
1458.000000	79.528376
1456.000000	78.501708
1454.000000	78.079209
1452.000000	77.580715
1450.000000	77.657624
1448.000000	78.490311
1446.000000	79.453512
1444.000000	79.935547
1442.000000	80.053393
1440.000000	79.968738
1438.000000	79.636883
1436.000000	79.615595
1434.000000	80.020051
1432.000000	80.104134
1430.000000	80.041681
1428.000000	80.068302
1426.000000	80.072538
1424.000000	79.974265
1422.000000	79.756674
1420.000000	79.288336
1418.000000	79.211608
1416.000000	79.349949
1414.000000	79.223611
1412.000000	78.873107
1410.000000	78.346648
1408.000000	77.596393
1406.000000	76.780757
1404.000000	76.312000
1402.000000	76.322629
1400.000000	76.555424
1398.000000	76.988861
1396.000000	77.368260
1394.000000	77.687268
1392.000000	78.005973
1390.000000	78.011856
1388.000000	77.705630
1386.000000	77.426547
1384.000000	77.327512
1382.000000	77.432599
1380.000000	77.530923
1378.000000	77.477911
1376.000000	77.323484
1374.000000	77.191203
1372.000000	77.155434
1370.000000	77.061165
1368.000000	76.904622
1366.000000	76.747131
1364.000000	76.522728
1362.000000	76.338521
1360.000000	76.241131
1358.000000	76.110982
1356.000000	75.918922
1354.000000	75.714779
1352.000000	75.508378
1350.000000	75.293477
1348.000000	75.074717
1346.000000	74.847871
1344.000000	74.602611
1342.000000	74.331430
1340.000000	74.077581
1338.000000	73.938280
1336.000000	73.863832
1334.000000	73.770260
1332.000000	73.619979
1330.000000	73.428348
1328.000000	73.207273
1326.000000	72.967118
1324.000000	72.706225
1322.000000	72.425030
1320.000000	72.122049
1318.000000	71.823936
1316.000000	71.528478
1314.000000	71.218209
1312.000000	70.905651
1310.000000	70.595654
1308.000000	70.269291
1306.000000	69.938212
1304.000000	69.599168
1302.000000	69.258121
1300.000000	68.914770
1298.000000	68.568151
1296.000000	68.213125
1294.000000	67.849288
1292.000000	67.468045
1290.000000	67.074443
1288.000000	66.673860
1286.000000	66.276672
1284.000000	65.867102
1282.000000	65.437200
1280.000000	64.980526
1278.000000	64.493381
1276.000000	63.955401
1274.000000	63.344555
1272.000000	62.622511
1270.000000	61.742705
1268.000000	60.640215
1266.000000	59.325922
1264.000000	57.962640
1262.000000	56.869881
1260.000000	56.325215
1258.000000	56.333444
1256.000000	56.622114
1254.000000	56.862790
1252.000000	56.855889
1250.000000	56.610456
1248.000000	56.214824
1246.000000	55.744958
1244.000000	55.238635
1242.000000	54.725431
1240.000000	54.217475
1238.000000	53.728743
1236.000000	53.257063
1234.000000	52.798735
1232.000000	52.345353
1230.000000	51.899455
1228.000000	51.453309
1226.000000	51.004292
1224.000000	50.548026
1222.000000	50.078739
1220.000000	49.588610
1218.000000	49.081476
1216.000000	48.563381
1214.000000	48.052018
1212.000000	47.562425
1210.000000	47.109665
1208.000000	46.693497
1206.000000	46.299087
1204.000000	45.903705
1202.000000	45.506016
1200.000000	45.113405
1198.000000	44.728379
1196.000000	44.338841
1194.000000	43.936452
1192.000000	43.518206
1190.000000	43.091598
1188.000000	42.652241
1186.000000	42.182829
1184.000000	41.599359
1182.000000	40.873582
1180.000000	40.310022
1178.000000	40.063116
1176.000000	39.831681
1174.000000	39.475780
1172.000000	39.051898
1170.000000	38.605267
1168.000000	38.141350
1166.000000	37.668471
1164.000000	37.197471
1162.000000	36.737530
1160.000000	36.283380
1158.000000	35.850653
1156.000000	35.429103
1154.000000	35.009453
1152.000000	34.584847
1150.000000	34.163565
1148.000000	33.733754
1146.000000	33.296176
1144.000000	32.866068
1142.000000	32.487596
1140.000000	32.178114
1138.000000	31.868228
1136.000000	31.507771
1134.000000	31.114509
1132.000000	30.701403
1130.000000	30.274075
1128.000000	29.848545
1126.000000	29.431819
1124.000000	29.005850
1122.000000	28.569541
1120.000000	28.120824
1118.000000	27.664733
1116.000000	27.199711
1114.000000	26.732481
1112.000000	26.266057
1110.000000	25.804520
1108.000000	25.351176
1106.000000	24.916221
1104.000000	24.498819
1102.000000	24.090012
1100.000000	23.680464
1098.000000	23.274555
1096.000000	22.876399
1094.000000	22.493299
1092.000000	22.126023
1090.000000	21.776116
1088.000000	21.434122
1086.000000	21.094468
1084.000000	20.747336
1082.000000	20.392096
1080.000000	20.054043
1078.000000	19.748195
1076.000000	19.469502
1074.000000	19.236787
1072.000000	19.021924
1070.000000	18.797401
1068.000000	18.566864
1066.000000	18.334919
1064.000000	18.102075
1062.000000	17.870459
1060.000000	17.624084
1058.000000	17.336693
1056.000000	16.947511
1054.000000	16.435835
1052.000000	15.928067
1050.000000	15.629211
1048.000000	15.594201
1046.000000	15.673561
1044.000000	15.673301
1042.000000	15.557504
1040.000000	15.372891
1038.000000	15.159868
1036.000000	14.934110
1034.000000	14.697004
1032.000000	14.446829
1030.000000	14.189630
1028.000000	13.924258
1026.000000	13.654998
1024.000000	13.382947
1022.000000	13.117587
1020.000000	12.865917
1018.000000	12.632528
1016.000000	12.416762
1014.000000	12.225432
1012.000000	12.054333
1010.000000	11.893047
1008.000000	11.727173
1006.000000	11.550573
1004.000000	11.355803
1002.000000	11.145805
1000.000000	10.918152
