PE IR       SUBTECH     SPECTRUM    ASCII       PEDS        4.00        
   -1
TE109A_054_80K_after_120K_BG.ASC
20/04/21
17:09:45.00
20/04/21
17:09:45.00
Administrator
TE109A, Tuesday, April 21 2020, 054.
1000.000000
#HDR
-1
-1
#GR
cm-1
EGY
1.0
0.0
6000.000000
-2.000000
2501
8
105.081500
10.914043
#DATA
6000.000000	15.924936
5998.000000	15.956769
5996.000000	15.988993
5994.000000	16.022137
5992.000000	16.055015
5990.000000	16.087922
5988.000000	16.120930
5986.000000	16.153554
5984.000000	16.184518
5982.000000	16.215037
5980.000000	16.246023
5978.000000	16.278755
5976.000000	16.312650
5974.000000	16.347362
5972.000000	16.380970
5970.000000	16.413196
5968.000000	16.444768
5966.000000	16.476846
5964.000000	16.510576
5962.000000	16.545851
5960.000000	16.580341
5958.000000	16.614580
5956.000000	16.647329
5954.000000	16.679124
5952.000000	16.711599
5950.000000	16.744454
5948.000000	16.778084
5946.000000	16.811652
5944.000000	16.844711
5942.000000	16.878677
5940.000000	16.911975
5938.000000	16.945262
5936.000000	16.977947
5934.000000	17.011573
5932.000000	17.044666
5930.000000	17.076415
5928.000000	17.107657
5926.000000	17.139704
5924.000000	17.174452
5922.000000	17.210096
5920.000000	17.246251
5918.000000	17.281693
5916.000000	17.316089
5914.000000	17.351262
5912.000000	17.387944
5910.000000	17.426314
5908.000000	17.463901
5906.000000	17.499518
5904.000000	17.534199
5902.000000	17.569247
5900.000000	17.604653
5898.000000	17.640453
5896.000000	17.675249
5894.000000	17.711010
5892.000000	17.746612
5890.000000	17.782702
5888.000000	17.817736
5886.000000	17.852894
5884.000000	17.887461
5882.000000	17.921308
5880.000000	17.956320
5878.000000	17.993104
5876.000000	18.030853
5874.000000	18.065957
5872.000000	18.099996
5870.000000	18.135926
5868.000000	18.172605
5866.000000	18.210148
5864.000000	18.246536
5862.000000	18.283593
5860.000000	18.321027
5858.000000	18.357756
5856.000000	18.393599
5854.000000	18.430321
5852.000000	18.467746
5850.000000	18.507324
5848.000000	18.546002
5846.000000	18.584567
5844.000000	18.623169
5842.000000	18.663700
5840.000000	18.704701
5838.000000	18.744932
5836.000000	18.785011
5834.000000	18.825314
5832.000000	18.866569
5830.000000	18.908833
5828.000000	18.951460
5826.000000	18.993735
5824.000000	19.033127
5822.000000	19.071849
5820.000000	19.111350
5818.000000	19.151236
5816.000000	19.191749
5814.000000	19.231389
5812.000000	19.270360
5810.000000	19.308929
5808.000000	19.347798
5806.000000	19.387698
5804.000000	19.427959
5802.000000	19.468496
5800.000000	19.507841
5798.000000	19.547389
5796.000000	19.586833
5794.000000	19.628869
5792.000000	19.670764
5790.000000	19.712140
5788.000000	19.753571
5786.000000	19.794391
5784.000000	19.834713
5782.000000	19.874228
5780.000000	19.914613
5778.000000	19.954589
5776.000000	19.994191
5774.000000	20.035049
5772.000000	20.077195
5770.000000	20.120006
5768.000000	20.162317
5766.000000	20.203780
5764.000000	20.245639
5762.000000	20.288105
5760.000000	20.329604
5758.000000	20.370447
5756.000000	20.409279
5754.000000	20.448204
5752.000000	20.488635
5750.000000	20.530719
5748.000000	20.572452
5746.000000	20.614102
5744.000000	20.655064
5742.000000	20.696717
5740.000000	20.737510
5738.000000	20.776619
5736.000000	20.816884
5734.000000	20.856484
5732.000000	20.894423
5730.000000	20.933433
5728.000000	20.973196
5726.000000	21.013872
5724.000000	21.053999
5722.000000	21.094762
5720.000000	21.138219
5718.000000	21.181457
5716.000000	21.223238
5714.000000	21.264501
5712.000000	21.306662
5710.000000	21.350124
5708.000000	21.394573
5706.000000	21.438775
5704.000000	21.481925
5702.000000	21.525312
5700.000000	21.569488
5698.000000	21.613902
5696.000000	21.657147
5694.000000	21.699711
5692.000000	21.743899
5690.000000	21.788632
5688.000000	21.833456
5686.000000	21.878979
5684.000000	21.925833
5682.000000	21.972022
5680.000000	22.016142
5678.000000	22.058935
5676.000000	22.102707
5674.000000	22.147338
5672.000000	22.192269
5670.000000	22.236901
5668.000000	22.281330
5666.000000	22.326201
5664.000000	22.371087
5662.000000	22.416861
5660.000000	22.462722
5658.000000	22.509367
5656.000000	22.553776
5654.000000	22.597468
5652.000000	22.641187
5650.000000	22.686643
5648.000000	22.732421
5646.000000	22.776719
5644.000000	22.820420
5642.000000	22.865417
5640.000000	22.910872
5638.000000	22.955799
5636.000000	22.999373
5634.000000	23.043190
5632.000000	23.088542
5630.000000	23.134458
5628.000000	23.179626
5626.000000	23.224239
5624.000000	23.268510
5622.000000	23.313669
5620.000000	23.359305
5618.000000	23.403797
5616.000000	23.446486
5614.000000	23.490078
5612.000000	23.536092
5610.000000	23.583021
5608.000000	23.627800
5606.000000	23.671197
5604.000000	23.715844
5602.000000	23.762518
5600.000000	23.809843
5598.000000	23.855521
5596.000000	23.898947
5594.000000	23.942516
5592.000000	23.988369
5590.000000	24.036912
5588.000000	24.085167
5586.000000	24.132071
5584.000000	24.178363
5582.000000	24.224043
5580.000000	24.269291
5578.000000	24.315679
5576.000000	24.362798
5574.000000	24.410737
5572.000000	24.458675
5570.000000	24.505777
5568.000000	24.551255
5566.000000	24.596588
5564.000000	24.643285
5562.000000	24.691045
5560.000000	24.738599
5558.000000	24.785420
5556.000000	24.831892
5554.000000	24.878323
5552.000000	24.925218
5550.000000	24.973074
5548.000000	25.019868
5546.000000	25.066756
5544.000000	25.114688
5542.000000	25.163957
5540.000000	25.211836
5538.000000	25.258117
5536.000000	25.302481
5534.000000	25.348631
5532.000000	25.395262
5530.000000	25.442892
5528.000000	25.490133
5526.000000	25.536337
5524.000000	25.581891
5522.000000	25.628235
5520.000000	25.675142
5518.000000	25.721023
5516.000000	25.767366
5514.000000	25.815295
5512.000000	25.861945
5510.000000	25.907235
5508.000000	25.953531
5506.000000	26.002689
5504.000000	26.052035
5502.000000	26.100606
5500.000000	26.148622
5498.000000	26.194012
5496.000000	26.235943
5494.000000	26.278718
5492.000000	26.325793
5490.000000	26.376421
5488.000000	26.428420
5486.000000	26.480994
5484.000000	26.534666
5482.000000	26.585979
5480.000000	26.631568
5478.000000	26.671354
5476.000000	26.712963
5474.000000	26.763376
5472.000000	26.817925
5470.000000	26.869978
5468.000000	26.917640
5466.000000	26.965139
5464.000000	27.012249
5462.000000	27.058401
5460.000000	27.105868
5458.000000	27.157207
5456.000000	27.210352
5454.000000	27.260634
5452.000000	27.306259
5450.000000	27.348539
5448.000000	27.391410
5446.000000	27.437629
5444.000000	27.485320
5442.000000	27.535763
5440.000000	27.586440
5438.000000	27.634515
5436.000000	27.682223
5434.000000	27.728512
5432.000000	27.773767
5430.000000	27.819495
5428.000000	27.871356
5426.000000	27.930639
5424.000000	27.988176
5422.000000	28.039907
5420.000000	28.087031
5418.000000	28.126832
5416.000000	28.161977
5414.000000	28.198746
5412.000000	28.247246
5410.000000	28.308097
5408.000000	28.368973
5406.000000	28.423700
5404.000000	28.472519
5402.000000	28.522291
5400.000000	28.569728
5398.000000	28.612362
5396.000000	28.653919
5394.000000	28.703260
5392.000000	28.759125
5390.000000	28.813150
5388.000000	28.858492
5386.000000	28.904799
5384.000000	28.958388
5382.000000	29.013914
5380.000000	29.059578
5378.000000	29.101011
5376.000000	29.149861
5374.000000	29.209892
5372.000000	29.270645
5370.000000	29.326522
5368.000000	29.375858
5366.000000	29.422268
5364.000000	29.470222
5362.000000	29.522241
5360.000000	29.575509
5358.000000	29.621893
5356.000000	29.659814
5354.000000	29.700899
5352.000000	29.751600
5350.000000	29.807332
5348.000000	29.852330
5346.000000	29.893206
5344.000000	29.941272
5342.000000	29.993354
5340.000000	30.042544
5338.000000	30.091888
5336.000000	30.148670
5334.000000	30.208682
5332.000000	30.262435
5330.000000	30.310295
5328.000000	30.358466
5326.000000	30.411833
5324.000000	30.467831
5322.000000	30.521124
5320.000000	30.571615
5318.000000	30.622176
5316.000000	30.673486
5314.000000	30.724955
5312.000000	30.773518
5310.000000	30.818529
5308.000000	30.864822
5306.000000	30.915818
5304.000000	30.968771
5302.000000	31.021367
5300.000000	31.073568
5298.000000	31.127411
5296.000000	31.180167
5294.000000	31.227639
5292.000000	31.271586
5290.000000	31.319372
5288.000000	31.372094
5286.000000	31.426282
5284.000000	31.479027
5282.000000	31.533014
5280.000000	31.587317
5278.000000	31.642016
5276.000000	31.695875
5274.000000	31.747377
5272.000000	31.794561
5270.000000	31.841115
5268.000000	31.885321
5266.000000	31.928871
5264.000000	31.976927
5262.000000	32.034350
5260.000000	32.094805
5258.000000	32.147695
5256.000000	32.195425
5254.000000	32.245909
5252.000000	32.296658
5250.000000	32.343066
5248.000000	32.388121
5246.000000	32.439684
5244.000000	32.498729
5242.000000	32.559663
5240.000000	32.617689
5238.000000	32.669566
5236.000000	32.717723
5234.000000	32.766786
5232.000000	32.817070
5230.000000	32.865531
5228.000000	32.910008
5226.000000	32.957784
5224.000000	33.011808
5222.000000	33.069314
5220.000000	33.123567
5218.000000	33.176955
5216.000000	33.231862
5214.000000	33.285653
5212.000000	33.331319
5210.000000	33.369734
5208.000000	33.411186
5206.000000	33.466245
5204.000000	33.531706
5202.000000	33.595560
5200.000000	33.649277
5198.000000	33.698746
5196.000000	33.750908
5194.000000	33.806205
5192.000000	33.860387
5190.000000	33.912822
5188.000000	33.963432
5186.000000	34.015535
5184.000000	34.070849
5182.000000	34.128687
5180.000000	34.184120
5178.000000	34.238786
5176.000000	34.293684
5174.000000	34.348386
5172.000000	34.401869
5170.000000	34.455821
5168.000000	34.509492
5166.000000	34.562586
5164.000000	34.615321
5162.000000	34.669329
5160.000000	34.722955
5158.000000	34.775678
5156.000000	34.828232
5154.000000	34.882576
5152.000000	34.937454
5150.000000	34.991802
5148.000000	35.046051
5146.000000	35.100721
5144.000000	35.154260
5142.000000	35.207445
5140.000000	35.261250
5138.000000	35.316712
5136.000000	35.370707
5134.000000	35.423413
5132.000000	35.475120
5130.000000	35.528742
5128.000000	35.584254
5126.000000	35.639014
5124.000000	35.690865
5122.000000	35.741704
5120.000000	35.793775
5118.000000	35.847786
5116.000000	35.902425
5114.000000	35.956586
5112.000000	36.010710
5110.000000	36.065424
5108.000000	36.120491
5106.000000	36.175231
5104.000000	36.229962
5102.000000	36.286283
5100.000000	36.341819
5098.000000	36.396004
5096.000000	36.450434
5094.000000	36.506030
5092.000000	36.561560
5090.000000	36.617051
5088.000000	36.673400
5086.000000	36.730434
5084.000000	36.786192
5082.000000	36.841891
5080.000000	36.897690
5078.000000	36.954079
5076.000000	37.009750
5074.000000	37.065412
5072.000000	37.121792
5070.000000	37.177402
5068.000000	37.230761
5066.000000	37.284917
5064.000000	37.342236
5062.000000	37.400348
5060.000000	37.456107
5058.000000	37.511516
5056.000000	37.567244
5054.000000	37.623073
5052.000000	37.677170
5050.000000	37.733046
5048.000000	37.790331
5046.000000	37.847102
5044.000000	37.901222
5042.000000	37.954971
5040.000000	38.010435
5038.000000	38.066373
5036.000000	38.121686
5034.000000	38.176530
5032.000000	38.231238
5030.000000	38.286468
5028.000000	38.341549
5026.000000	38.397216
5024.000000	38.452841
5022.000000	38.508153
5020.000000	38.563405
5018.000000	38.619107
5016.000000	38.674898
5014.000000	38.730159
5012.000000	38.785857
5010.000000	38.843617
5008.000000	38.901194
5006.000000	38.956879
5004.000000	39.012246
5002.000000	39.070423
5000.000000	39.129372
4998.000000	39.186474
4996.000000	39.242626
4994.000000	39.298531
4992.000000	39.355909
4990.000000	39.415453
4988.000000	39.475357
4986.000000	39.532856
4984.000000	39.589249
4982.000000	39.646112
4980.000000	39.703111
4978.000000	39.761196
4976.000000	39.819534
4974.000000	39.876586
4972.000000	39.931480
4970.000000	39.988250
4968.000000	40.046473
4966.000000	40.104946
4964.000000	40.161615
4962.000000	40.218751
4960.000000	40.276510
4958.000000	40.334601
4956.000000	40.391358
4954.000000	40.447013
4952.000000	40.501835
4950.000000	40.557511
4948.000000	40.613052
4946.000000	40.669117
4944.000000	40.724193
4942.000000	40.779316
4940.000000	40.836238
4938.000000	40.894893
4936.000000	40.951365
4934.000000	41.006004
4932.000000	41.061820
4930.000000	41.119015
4928.000000	41.176324
4926.000000	41.233436
4924.000000	41.289985
4922.000000	41.345961
4920.000000	41.402350
4918.000000	41.460150
4916.000000	41.517776
4914.000000	41.574265
4912.000000	41.630045
4910.000000	41.687391
4908.000000	41.744176
4906.000000	41.801621
4904.000000	41.861387
4902.000000	41.921570
4900.000000	41.978943
4898.000000	42.036995
4896.000000	42.097361
4894.000000	42.155752
4892.000000	42.211429
4890.000000	42.270006
4888.000000	42.331982
4886.000000	42.392412
4884.000000	42.448744
4882.000000	42.504820
4880.000000	42.563126
4878.000000	42.623329
4876.000000	42.681505
4874.000000	42.738683
4872.000000	42.796631
4870.000000	42.855423
4868.000000	42.911840
4866.000000	42.969968
4864.000000	43.030553
4862.000000	43.089878
4860.000000	43.146633
4858.000000	43.204013
4856.000000	43.260808
4854.000000	43.317169
4852.000000	43.375006
4850.000000	43.433056
4848.000000	43.488445
4846.000000	43.545303
4844.000000	43.603847
4842.000000	43.662044
4840.000000	43.718188
4838.000000	43.774781
4836.000000	43.833108
4834.000000	43.892884
4832.000000	43.951141
4830.000000	44.006839
4828.000000	44.062538
4826.000000	44.119380
4824.000000	44.175351
4822.000000	44.231892
4820.000000	44.290292
4818.000000	44.350757
4816.000000	44.409880
4814.000000	44.467780
4812.000000	44.526073
4810.000000	44.586285
4808.000000	44.645338
4806.000000	44.702798
4804.000000	44.760547
4802.000000	44.820609
4800.000000	44.881179
4798.000000	44.941770
4796.000000	45.001720
4794.000000	45.062551
4792.000000	45.123487
4790.000000	45.183745
4788.000000	45.241930
4786.000000	45.300135
4784.000000	45.360289
4782.000000	45.421888
4780.000000	45.481473
4778.000000	45.539777
4776.000000	45.597055
4774.000000	45.654827
4772.000000	45.713459
4770.000000	45.774164
4768.000000	45.833877
4766.000000	45.892824
4764.000000	45.951590
4762.000000	46.011184
4760.000000	46.069306
4758.000000	46.126011
4756.000000	46.182818
4754.000000	46.241649
4752.000000	46.300880
4750.000000	46.359142
4748.000000	46.416265
4746.000000	46.473869
4744.000000	46.531099
4742.000000	46.587679
4740.000000	46.644510
4738.000000	46.703482
4736.000000	46.763351
4734.000000	46.822954
4732.000000	46.880985
4730.000000	46.939395
4728.000000	46.998113
4726.000000	47.055982
4724.000000	47.112324
4722.000000	47.169361
4720.000000	47.229197
4718.000000	47.290671
4716.000000	47.351874
4714.000000	47.413075
4712.000000	47.475134
4710.000000	47.537473
4708.000000	47.599295
4706.000000	47.660669
4704.000000	47.722174
4702.000000	47.785759
4700.000000	47.848692
4698.000000	47.910518
4696.000000	47.972030
4694.000000	48.034234
4692.000000	48.094586
4690.000000	48.154281
4688.000000	48.215898
4686.000000	48.279300
4684.000000	48.340089
4682.000000	48.400320
4680.000000	48.462024
4678.000000	48.523242
4676.000000	48.582672
4674.000000	48.643727
4672.000000	48.705263
4670.000000	48.765569
4668.000000	48.824869
4666.000000	48.884956
4664.000000	48.945659
4662.000000	49.007527
4660.000000	49.068532
4658.000000	49.128326
4656.000000	49.188127
4654.000000	49.249967
4652.000000	49.311117
4650.000000	49.371581
4648.000000	49.431528
4646.000000	49.492230
4644.000000	49.552775
4642.000000	49.613710
4640.000000	49.674699
4638.000000	49.736316
4636.000000	49.797084
4634.000000	49.856221
4632.000000	49.914239
4630.000000	49.973341
4628.000000	50.034436
4626.000000	50.097221
4624.000000	50.159406
4622.000000	50.219955
4620.000000	50.279397
4618.000000	50.341043
4616.000000	50.404835
4614.000000	50.468424
4612.000000	50.530733
4610.000000	50.594525
4608.000000	50.660198
4606.000000	50.726314
4604.000000	50.791093
4602.000000	50.855264
4600.000000	50.919757
4598.000000	50.985140
4596.000000	51.049764
4594.000000	51.112833
4592.000000	51.175165
4590.000000	51.238989
4588.000000	51.303277
4586.000000	51.367142
4584.000000	51.430691
4582.000000	51.494337
4580.000000	51.558173
4578.000000	51.622298
4576.000000	51.684726
4574.000000	51.747540
4572.000000	51.811755
4570.000000	51.875946
4568.000000	51.939507
4566.000000	52.003457
4564.000000	52.065654
4562.000000	52.127757
4560.000000	52.190692
4558.000000	52.254195
4556.000000	52.316399
4554.000000	52.377977
4552.000000	52.439230
4550.000000	52.501361
4548.000000	52.563257
4546.000000	52.626508
4544.000000	52.689718
4542.000000	52.751853
4540.000000	52.813283
4538.000000	52.875440
4536.000000	52.937418
4534.000000	52.998562
4532.000000	53.059506
4530.000000	53.123203
4528.000000	53.187956
4526.000000	53.250953
4524.000000	53.313839
4522.000000	53.378644
4520.000000	53.442614
4518.000000	53.506151
4516.000000	53.570482
4514.000000	53.634931
4512.000000	53.698415
4510.000000	53.762677
4508.000000	53.828820
4506.000000	53.895168
4504.000000	53.959630
4502.000000	54.023908
4500.000000	54.089183
4498.000000	54.154832
4496.000000	54.219238
4494.000000	54.283420
4492.000000	54.348222
4490.000000	54.413944
4488.000000	54.479439
4486.000000	54.544371
4484.000000	54.608329
4482.000000	54.672883
4480.000000	54.737327
4478.000000	54.800744
4476.000000	54.863505
4474.000000	54.926439
4472.000000	54.989643
4470.000000	55.053819
4468.000000	55.116677
4466.000000	55.178437
4464.000000	55.240801
4462.000000	55.303921
4460.000000	55.365937
4458.000000	55.427582
4456.000000	55.488469
4454.000000	55.549390
4452.000000	55.610829
4450.000000	55.672373
4448.000000	55.733366
4446.000000	55.795335
4444.000000	55.858228
4442.000000	55.922442
4440.000000	55.986091
4438.000000	56.048342
4436.000000	56.109650
4434.000000	56.171423
4432.000000	56.233767
4430.000000	56.297164
4428.000000	56.359845
4426.000000	56.422074
4424.000000	56.485648
4422.000000	56.551405
4420.000000	56.615705
4418.000000	56.679120
4416.000000	56.743332
4414.000000	56.807516
4412.000000	56.870240
4410.000000	56.934469
4408.000000	57.000313
4406.000000	57.066230
4404.000000	57.130568
4402.000000	57.194925
4400.000000	57.257926
4398.000000	57.319403
4396.000000	57.381598
4394.000000	57.445492
4392.000000	57.509911
4390.000000	57.573925
4388.000000	57.635721
4386.000000	57.697371
4384.000000	57.758965
4382.000000	57.819229
4380.000000	57.879432
4378.000000	57.940980
4376.000000	58.001901
4374.000000	58.062415
4372.000000	58.121743
4370.000000	58.180320
4368.000000	58.238637
4366.000000	58.299324
4364.000000	58.361178
4362.000000	58.422397
4360.000000	58.482654
4358.000000	58.543151
4356.000000	58.603552
4354.000000	58.665522
4352.000000	58.728395
4350.000000	58.791813
4348.000000	58.854318
4346.000000	58.916411
4344.000000	58.980077
4342.000000	59.045102
4340.000000	59.108395
4338.000000	59.172344
4336.000000	59.238077
4334.000000	59.301684
4332.000000	59.361699
4330.000000	59.424760
4328.000000	59.491030
4326.000000	59.556986
4324.000000	59.623526
4322.000000	59.690945
4320.000000	59.755516
4318.000000	59.820574
4316.000000	59.889899
4314.000000	59.961400
4312.000000	60.030462
4310.000000	60.097034
4308.000000	60.162437
4306.000000	60.228713
4304.000000	60.294874
4302.000000	60.360762
4300.000000	60.427104
4298.000000	60.494196
4296.000000	60.559794
4294.000000	60.623808
4292.000000	60.687286
4290.000000	60.750950
4288.000000	60.812616
4286.000000	60.872997
4284.000000	60.934542
4282.000000	60.996553
4280.000000	61.055558
4278.000000	61.113385
4276.000000	61.172220
4274.000000	61.232570
4272.000000	61.292331
4270.000000	61.351205
4268.000000	61.410962
4266.000000	61.472809
4264.000000	61.534409
4262.000000	61.596086
4260.000000	61.658010
4258.000000	61.720444
4256.000000	61.783479
4254.000000	61.847932
4252.000000	61.911966
4250.000000	61.975580
4248.000000	62.039472
4246.000000	62.103862
4244.000000	62.166918
4242.000000	62.228859
4240.000000	62.291434
4238.000000	62.356884
4236.000000	62.423080
4234.000000	62.488890
4232.000000	62.554237
4230.000000	62.619729
4228.000000	62.684270
4226.000000	62.748544
4224.000000	62.812410
4222.000000	62.876052
4220.000000	62.939663
4218.000000	63.004411
4216.000000	63.069679
4214.000000	63.134875
4212.000000	63.199479
4210.000000	63.264499
4208.000000	63.331072
4206.000000	63.399817
4204.000000	63.466795
4202.000000	63.532427
4200.000000	63.599194
4198.000000	63.667963
4196.000000	63.738408
4194.000000	63.808214
4192.000000	63.874887
4190.000000	63.942993
4188.000000	64.012195
4186.000000	64.078972
4184.000000	64.143014
4182.000000	64.207219
4180.000000	64.271708
4178.000000	64.338670
4176.000000	64.407246
4174.000000	64.474075
4172.000000	64.537293
4170.000000	64.599588
4168.000000	64.662626
4166.000000	64.727748
4164.000000	64.792795
4162.000000	64.857361
4160.000000	64.921869
4158.000000	64.986840
4156.000000	65.051336
4154.000000	65.116678
4152.000000	65.181806
4150.000000	65.246255
4148.000000	65.310709
4146.000000	65.375767
4144.000000	65.439532
4142.000000	65.503287
4140.000000	65.568474
4138.000000	65.634883
4136.000000	65.701194
4134.000000	65.768635
4132.000000	65.835580
4130.000000	65.901039
4128.000000	65.965668
4126.000000	66.030945
4124.000000	66.096542
4122.000000	66.163336
4120.000000	66.231415
4118.000000	66.299849
4116.000000	66.367040
4114.000000	66.434168
4112.000000	66.500430
4110.000000	66.564648
4108.000000	66.626221
4106.000000	66.688455
4104.000000	66.753319
4102.000000	66.819622
4100.000000	66.883519
4098.000000	66.945633
4096.000000	67.008583
4094.000000	67.074823
4092.000000	67.142329
4090.000000	67.209982
4088.000000	67.278843
4086.000000	67.349552
4084.000000	67.419242
4082.000000	67.486595
4080.000000	67.552045
4078.000000	67.618658
4076.000000	67.685578
4074.000000	67.752605
4072.000000	67.819375
4070.000000	67.885080
4068.000000	67.949629
4066.000000	68.014251
4064.000000	68.078628
4062.000000	68.143784
4060.000000	68.210187
4058.000000	68.277342
4056.000000	68.342289
4054.000000	68.405890
4052.000000	68.470825
4050.000000	68.537293
4048.000000	68.600313
4046.000000	68.660289
4044.000000	68.723191
4042.000000	68.792128
4040.000000	68.862633
4038.000000	68.930619
4036.000000	68.995318
4034.000000	69.061401
4032.000000	69.130267
4030.000000	69.198780
4028.000000	69.264469
4026.000000	69.331535
4024.000000	69.401882
4022.000000	69.471115
4020.000000	69.536974
4018.000000	69.605016
4016.000000	69.675412
4014.000000	69.745507
4012.000000	69.813851
4010.000000	69.880896
4008.000000	69.948538
4006.000000	70.019053
4004.000000	70.089584
4002.000000	70.158138
4000.000000	70.224512
3998.000000	70.288431
3996.000000	70.350767
3994.000000	70.415210
3992.000000	70.481176
3990.000000	70.548543
3988.000000	70.616548
3986.000000	70.682056
3984.000000	70.743624
3982.000000	70.805209
3980.000000	70.868515
3978.000000	70.929730
3976.000000	70.987242
3974.000000	71.048235
3972.000000	71.112597
3970.000000	71.176567
3968.000000	71.241449
3966.000000	71.305552
3964.000000	71.363450
3962.000000	71.420067
3960.000000	71.481277
3958.000000	71.546326
3956.000000	71.610621
3954.000000	71.666993
3952.000000	71.708930
3950.000000	71.750106
3948.000000	71.811389
3946.000000	71.876811
3944.000000	71.928388
3942.000000	71.998419
3940.000000	72.091475
3938.000000	72.172337
3936.000000	72.217616
3934.000000	72.235368
3932.000000	72.279323
3930.000000	72.373218
3928.000000	72.458444
3926.000000	72.510989
3924.000000	72.569915
3922.000000	72.627957
3920.000000	72.653991
3918.000000	72.693930
3916.000000	72.805961
3914.000000	72.948484
3912.000000	73.052259
3910.000000	73.108737
3908.000000	73.088356
3906.000000	72.973868
3904.000000	72.879078
3902.000000	72.911068
3900.000000	73.065986
3898.000000	73.294912
3896.000000	73.467688
3894.000000	73.474116
3892.000000	73.443959
3890.000000	73.513121
3888.000000	73.530785
3886.000000	73.510759
3884.000000	73.618665
3882.000000	73.741701
3880.000000	73.849892
3878.000000	73.983094
3876.000000	74.031254
3874.000000	73.976517
3872.000000	73.849535
3870.000000	73.819598
3868.000000	73.973932
3866.000000	74.103018
3864.000000	74.200704
3862.000000	74.370059
3860.000000	74.514617
3858.000000	74.377377
3856.000000	73.815252
3854.000000	73.425695
3852.000000	73.812543
3850.000000	74.525387
3848.000000	74.928863
3846.000000	75.004958
3844.000000	74.965354
3842.000000	74.864092
3840.000000	74.646109
3838.000000	74.551172
3836.000000	74.788872
3834.000000	75.096454
3832.000000	75.291728
3830.000000	75.442716
3828.000000	75.545975
3826.000000	75.583168
3824.000000	75.479273
3822.000000	75.338345
3820.000000	75.365687
3818.000000	75.376279
3816.000000	75.438444
3814.000000	75.786740
3812.000000	76.096757
3810.000000	76.077348
3808.000000	75.922705
3806.000000	75.926161
3804.000000	75.896265
3802.000000	75.801310
3800.000000	75.998488
3798.000000	76.314697
3796.000000	76.513738
3794.000000	76.676164
3792.000000	76.795805
3790.000000	76.862740
3788.000000	76.902661
3786.000000	76.934666
3784.000000	76.976225
3782.000000	76.993543
3780.000000	77.008413
3778.000000	77.107163
3776.000000	77.236990
3774.000000	77.282508
3772.000000	77.223628
3770.000000	77.192237
3768.000000	77.267794
3766.000000	77.381168
3764.000000	77.485776
3762.000000	77.515748
3760.000000	77.500337
3758.000000	77.551234
3756.000000	77.520721
3754.000000	77.194700
3752.000000	76.833565
3750.000000	76.864514
3748.000000	77.041046
3746.000000	76.933885
3744.000000	77.050271
3742.000000	77.623581
3740.000000	77.942053
3738.000000	77.820257
3736.000000	77.699957
3734.000000	77.787839
3732.000000	78.029784
3730.000000	78.314358
3728.000000	78.456519
3726.000000	78.496242
3724.000000	78.563316
3722.000000	78.661874
3720.000000	78.780142
3718.000000	78.885804
3716.000000	78.872699
3714.000000	78.676379
3712.000000	78.550372
3710.000000	78.721674
3708.000000	79.019784
3706.000000	79.206941
3704.000000	79.229974
3702.000000	79.233729
3700.000000	79.342351
3698.000000	79.468589
3696.000000	79.521756
3694.000000	79.462866
3692.000000	79.236408
3690.000000	78.974089
3688.000000	79.061676
3686.000000	79.480762
3684.000000	79.776037
3682.000000	79.823321
3680.000000	79.696077
3678.000000	79.361960
3676.000000	79.121291
3674.000000	79.237640
3672.000000	79.331012
3670.000000	79.423040
3668.000000	79.771393
3666.000000	80.099548
3664.000000	80.232437
3662.000000	80.267154
3660.000000	80.223323
3658.000000	80.085504
3656.000000	80.040102
3654.000000	80.063700
3652.000000	79.846408
3650.000000	79.587825
3648.000000	79.718266
3646.000000	80.106545
3644.000000	80.384552
3642.000000	80.488474
3640.000000	80.525609
3638.000000	80.538895
3636.000000	80.522659
3634.000000	80.458835
3632.000000	80.223376
3630.000000	79.913788
3628.000000	79.992186
3626.000000	80.372969
3624.000000	80.566681
3622.000000	80.474795
3620.000000	80.331051
3618.000000	80.360629
3616.000000	80.453399
3614.000000	80.447886
3612.000000	80.393226
3610.000000	80.356509
3608.000000	80.427009
3606.000000	80.585322
3604.000000	80.675877
3602.000000	80.671819
3600.000000	80.650065
3598.000000	80.630686
3596.000000	80.607837
3594.000000	80.615848
3592.000000	80.607506
3590.000000	80.493440
3588.000000	80.399892
3586.000000	80.481690
3584.000000	80.622071
3582.000000	80.683040
3580.000000	80.687446
3578.000000	80.684085
3576.000000	80.684635
3574.000000	80.685719
3572.000000	80.649608
3570.000000	80.525098
3568.000000	80.399419
3566.000000	80.424629
3564.000000	80.537556
3562.000000	80.602672
3560.000000	80.622949
3558.000000	80.635824
3556.000000	80.627941
3554.000000	80.594615
3552.000000	80.574515
3550.000000	80.564531
3548.000000	80.522491
3546.000000	80.488051
3544.000000	80.508142
3542.000000	80.544563
3540.000000	80.549759
3538.000000	80.525074
3536.000000	80.505292
3534.000000	80.497165
3532.000000	80.468297
3530.000000	80.415476
3528.000000	80.365730
3526.000000	80.325945
3524.000000	80.289845
3522.000000	80.267871
3520.000000	80.252525
3518.000000	80.228601
3516.000000	80.197561
3514.000000	80.157211
3512.000000	80.104111
3510.000000	80.051998
3508.000000	80.012901
3506.000000	79.961101
3504.000000	79.890927
3502.000000	79.841176
3500.000000	79.808334
3498.000000	79.760694
3496.000000	79.705572
3494.000000	79.658594
3492.000000	79.608984
3490.000000	79.551599
3488.000000	79.499612
3486.000000	79.458999
3484.000000	79.418097
3482.000000	79.382162
3480.000000	79.367817
3478.000000	79.365461
3476.000000	79.362149
3474.000000	79.365086
3472.000000	79.375612
3470.000000	79.387072
3468.000000	79.402492
3466.000000	79.429075
3464.000000	79.463076
3462.000000	79.500951
3460.000000	79.542467
3458.000000	79.581152
3456.000000	79.612705
3454.000000	79.640113
3452.000000	79.663142
3450.000000	79.673288
3448.000000	79.678933
3446.000000	79.706136
3444.000000	79.751778
3442.000000	79.809642
3440.000000	79.883590
3438.000000	79.970565
3436.000000	80.072000
3434.000000	80.193470
3432.000000	80.329870
3430.000000	80.469818
3428.000000	80.609369
3426.000000	80.743674
3424.000000	80.865118
3422.000000	80.974459
3420.000000	81.083217
3418.000000	81.191299
3416.000000	81.288592
3414.000000	81.374105
3412.000000	81.448362
3410.000000	81.513970
3408.000000	81.575376
3406.000000	81.632291
3404.000000	81.683432
3402.000000	81.732990
3400.000000	81.792111
3398.000000	81.867122
3396.000000	81.945744
3394.000000	82.016053
3392.000000	82.084130
3390.000000	82.159858
3388.000000	82.233538
3386.000000	82.295619
3384.000000	82.354386
3382.000000	82.411084
3380.000000	82.464308
3378.000000	82.517835
3376.000000	82.569088
3374.000000	82.615677
3372.000000	82.655792
3370.000000	82.691487
3368.000000	82.734019
3366.000000	82.783711
3364.000000	82.832475
3362.000000	82.876197
3360.000000	82.918283
3358.000000	82.962113
3356.000000	83.005334
3354.000000	83.046555
3352.000000	83.084732
3350.000000	83.124786
3348.000000	83.169392
3346.000000	83.213953
3344.000000	83.257278
3342.000000	83.296967
3340.000000	83.333633
3338.000000	83.371191
3336.000000	83.412351
3334.000000	83.455580
3332.000000	83.497295
3330.000000	83.535051
3328.000000	83.570278
3326.000000	83.605829
3324.000000	83.643491
3322.000000	83.682705
3320.000000	83.720666
3318.000000	83.756086
3316.000000	83.790601
3314.000000	83.823891
3312.000000	83.855105
3310.000000	83.884766
3308.000000	83.914031
3306.000000	83.945443
3304.000000	83.983947
3302.000000	84.028080
3300.000000	84.068476
3298.000000	84.103644
3296.000000	84.137019
3294.000000	84.169407
3292.000000	84.204034
3290.000000	84.245616
3288.000000	84.287732
3286.000000	84.326617
3284.000000	84.366268
3282.000000	84.405829
3280.000000	84.442755
3278.000000	84.477536
3276.000000	84.511573
3274.000000	84.548090
3272.000000	84.587837
3270.000000	84.631983
3268.000000	84.679598
3266.000000	84.724224
3264.000000	84.766297
3262.000000	84.809394
3260.000000	84.853197
3258.000000	84.895239
3256.000000	84.937786
3254.000000	84.984967
3252.000000	85.035995
3250.000000	85.085969
3248.000000	85.131639
3246.000000	85.177018
3244.000000	85.229874
3242.000000	85.283653
3240.000000	85.333069
3238.000000	85.381687
3236.000000	85.428987
3234.000000	85.473834
3232.000000	85.522850
3230.000000	85.578140
3228.000000	85.631384
3226.000000	85.681899
3224.000000	85.732312
3222.000000	85.777852
3220.000000	85.822058
3218.000000	85.871250
3216.000000	85.920498
3214.000000	85.969376
3212.000000	86.019997
3210.000000	86.072852
3208.000000	86.132061
3206.000000	86.195708
3204.000000	86.260967
3202.000000	86.328680
3200.000000	86.397967
3198.000000	86.469161
3196.000000	86.544747
3194.000000	86.619488
3192.000000	86.690950
3190.000000	86.761808
3188.000000	86.832785
3186.000000	86.902687
3184.000000	86.973994
3182.000000	87.046575
3180.000000	87.115568
3178.000000	87.184654
3176.000000	87.258951
3174.000000	87.334056
3172.000000	87.408122
3170.000000	87.482161
3168.000000	87.554973
3166.000000	87.628853
3164.000000	87.706410
3162.000000	87.784284
3160.000000	87.861535
3158.000000	87.939005
3156.000000	88.016179
3154.000000	88.090974
3152.000000	88.166614
3150.000000	88.246919
3148.000000	88.327623
3146.000000	88.405271
3144.000000	88.480870
3142.000000	88.554119
3140.000000	88.625398
3138.000000	88.697441
3136.000000	88.766446
3134.000000	88.831075
3132.000000	88.898821
3130.000000	88.968187
3128.000000	89.033909
3126.000000	89.095428
3124.000000	89.152472
3122.000000	89.204951
3120.000000	89.257236
3118.000000	89.310555
3116.000000	89.366295
3114.000000	89.426039
3112.000000	89.483414
3110.000000	89.534794
3108.000000	89.587564
3106.000000	89.645754
3104.000000	89.705142
3102.000000	89.765066
3100.000000	89.830278
3098.000000	89.896242
3096.000000	89.959059
3094.000000	90.023851
3092.000000	90.089540
3090.000000	90.150079
3088.000000	90.206716
3086.000000	90.260633
3084.000000	90.309688
3082.000000	90.353747
3080.000000	90.393673
3078.000000	90.433726
3076.000000	90.473293
3074.000000	90.503231
3072.000000	90.521119
3070.000000	90.529594
3068.000000	90.535961
3066.000000	90.553723
3064.000000	90.591381
3062.000000	90.640967
3060.000000	90.693110
3058.000000	90.748488
3056.000000	90.810294
3054.000000	90.874798
3052.000000	90.933790
3050.000000	90.984884
3048.000000	91.034245
3046.000000	91.077062
3044.000000	91.106701
3042.000000	91.132577
3040.000000	91.161302
3038.000000	91.182733
3036.000000	91.191263
3034.000000	91.190475
3032.000000	91.179819
3030.000000	91.148724
3028.000000	91.084133
3026.000000	90.979014
3024.000000	90.850653
3022.000000	90.733123
3020.000000	90.668445
3018.000000	90.697273
3016.000000	90.836840
3014.000000	91.072514
3012.000000	91.358228
3010.000000	91.633413
3008.000000	91.859080
3006.000000	92.023022
3004.000000	92.134978
3002.000000	92.213403
3000.000000	92.271696
2998.000000	92.313713
2996.000000	92.345384
2994.000000	92.368207
2992.000000	92.380897
2990.000000	92.381824
2988.000000	92.368024
2986.000000	92.334115
2984.000000	92.276362
2982.000000	92.190984
2980.000000	92.071407
2978.000000	91.908445
2976.000000	91.685866
2974.000000	91.386157
2972.000000	90.997829
2970.000000	90.522165
2968.000000	90.002692
2966.000000	89.521810
2964.000000	89.168704
2962.000000	88.998377
2960.000000	89.012688
2958.000000	89.154592
2956.000000	89.344799
2954.000000	89.526303
2952.000000	89.667402
2950.000000	89.737252
2948.000000	89.703044
2946.000000	89.542087
2944.000000	89.250987
2942.000000	88.841986
2940.000000	88.352543
2938.000000	87.843835
2936.000000	87.373844
2934.000000	86.957893
2932.000000	86.565165
2930.000000	86.177420
2928.000000	85.849580
2926.000000	85.685535
2924.000000	85.792827
2922.000000	86.212656
2920.000000	86.886613
2918.000000	87.701242
2916.000000	88.552422
2914.000000	89.352795
2912.000000	90.040687
2910.000000	90.588724
2908.000000	91.014969
2906.000000	91.361095
2904.000000	91.661920
2902.000000	91.936393
2900.000000	92.192599
2898.000000	92.431645
2896.000000	92.656875
2894.000000	92.871060
2892.000000	93.074570
2890.000000	93.261980
2888.000000	93.423799
2886.000000	93.552307
2884.000000	93.641735
2882.000000	93.686912
2880.000000	93.685171
2878.000000	93.632997
2876.000000	93.524003
2874.000000	93.350243
2872.000000	93.100932
2870.000000	92.746509
2868.000000	92.264071
2866.000000	91.691463
2864.000000	91.152190
2862.000000	90.800460
2860.000000	90.726323
2858.000000	90.894271
2856.000000	91.195151
2854.000000	91.550443
2852.000000	91.961476
2850.000000	92.468348
2848.000000	93.072909
2846.000000	93.691457
2844.000000	94.230500
2842.000000	94.660942
2840.000000	94.997814
2838.000000	95.267890
2836.000000	95.490477
2834.000000	95.673193
2832.000000	95.828985
2830.000000	95.964917
2828.000000	96.086369
2826.000000	96.196337
2824.000000	96.298734
2822.000000	96.393852
2820.000000	96.480812
2818.000000	96.558732
2816.000000	96.629709
2814.000000	96.694509
2812.000000	96.753425
2810.000000	96.808025
2808.000000	96.860332
2806.000000	96.908100
2804.000000	96.953320
2802.000000	96.997583
2800.000000	97.042021
2798.000000	97.084395
2796.000000	97.125580
2794.000000	97.169794
2792.000000	97.218289
2790.000000	97.273358
2788.000000	97.343431
2786.000000	97.425693
2784.000000	97.511707
2782.000000	97.594134
2780.000000	97.669734
2778.000000	97.737873
2776.000000	97.801348
2774.000000	97.860482
2772.000000	97.916375
2770.000000	97.968392
2768.000000	98.018552
2766.000000	98.068016
2764.000000	98.117569
2762.000000	98.165739
2760.000000	98.213106
2758.000000	98.257845
2756.000000	98.301706
2754.000000	98.344049
2752.000000	98.385317
2750.000000	98.425608
2748.000000	98.463290
2746.000000	98.498665
2744.000000	98.534211
2742.000000	98.570198
2740.000000	98.607079
2738.000000	98.644113
2736.000000	98.681037
2734.000000	98.714365
2732.000000	98.747239
2730.000000	98.781439
2728.000000	98.815861
2726.000000	98.848252
2724.000000	98.881524
2722.000000	98.915251
2720.000000	98.947434
2718.000000	98.978520
2716.000000	99.009529
2714.000000	99.038647
2712.000000	99.065839
2710.000000	99.091319
2708.000000	99.116820
2706.000000	99.141299
2704.000000	99.171541
2702.000000	99.210255
2700.000000	99.253514
2698.000000	99.297910
2696.000000	99.345600
2694.000000	99.394930
2692.000000	99.442499
2690.000000	99.486637
2688.000000	99.527171
2686.000000	99.566409
2684.000000	99.607595
2682.000000	99.646594
2680.000000	99.682958
2678.000000	99.717462
2676.000000	99.751203
2674.000000	99.784376
2672.000000	99.817256
2670.000000	99.848472
2668.000000	99.878558
2666.000000	99.908731
2664.000000	99.940124
2662.000000	99.970323
2660.000000	99.999615
2658.000000	100.029151
2656.000000	100.063316
2654.000000	100.101890
2652.000000	100.142381
2650.000000	100.181294
2648.000000	100.220586
2646.000000	100.261454
2644.000000	100.303379
2642.000000	100.340382
2640.000000	100.374551
2638.000000	100.409677
2636.000000	100.446093
2634.000000	100.480594
2632.000000	100.514757
2630.000000	100.546454
2628.000000	100.576285
2626.000000	100.604887
2624.000000	100.630932
2622.000000	100.657652
2620.000000	100.689995
2618.000000	100.721593
2616.000000	100.748781
2614.000000	100.772242
2612.000000	100.797379
2610.000000	100.821038
2608.000000	100.841678
2606.000000	100.859418
2604.000000	100.875969
2602.000000	100.890188
2600.000000	100.902183
2598.000000	100.912218
2596.000000	100.924966
2594.000000	100.942187
2592.000000	100.967289
2590.000000	101.001257
2588.000000	101.044248
2586.000000	101.093795
2584.000000	101.152481
2582.000000	101.216452
2580.000000	101.279507
2578.000000	101.337859
2576.000000	101.393056
2574.000000	101.442584
2572.000000	101.487154
2570.000000	101.526328
2568.000000	101.562075
2566.000000	101.597505
2564.000000	101.633414
2562.000000	101.665734
2560.000000	101.696458
2558.000000	101.724618
2556.000000	101.753114
2554.000000	101.781659
2552.000000	101.809400
2550.000000	101.836958
2548.000000	101.864846
2546.000000	101.890979
2544.000000	101.918899
2542.000000	101.946244
2540.000000	101.973703
2538.000000	102.001542
2536.000000	102.029116
2534.000000	102.055126
2532.000000	102.083100
2530.000000	102.111274
2528.000000	102.138324
2526.000000	102.164001
2524.000000	102.191292
2522.000000	102.215766
2520.000000	102.240068
2518.000000	102.264585
2516.000000	102.287333
2514.000000	102.309587
2512.000000	102.334752
2510.000000	102.358963
2508.000000	102.381877
2506.000000	102.402394
2504.000000	102.424001
2502.000000	102.447728
2500.000000	102.474728
2498.000000	102.499850
2496.000000	102.526079
2494.000000	102.553688
2492.000000	102.581126
2490.000000	102.607960
2488.000000	102.636027
2486.000000	102.661985
2484.000000	102.688902
2482.000000	102.716771
2480.000000	102.743944
2478.000000	102.768056
2476.000000	102.792429
2474.000000	102.814716
2472.000000	102.835044
2470.000000	102.853774
2468.000000	102.872770
2466.000000	102.892651
2464.000000	102.913088
2462.000000	102.930978
2460.000000	102.947403
2458.000000	102.962853
2456.000000	102.980853
2454.000000	102.998546
2452.000000	103.016188
2450.000000	103.035756
2448.000000	103.056582
2446.000000	103.073716
2444.000000	103.090182
2442.000000	103.104269
2440.000000	103.120062
2438.000000	103.136272
2436.000000	103.152016
2434.000000	103.165943
2432.000000	103.179759
2430.000000	103.191629
2428.000000	103.203094
2426.000000	103.218232
2424.000000	103.237768
2422.000000	103.256721
2420.000000	103.272451
2418.000000	103.282912
2416.000000	103.296741
2414.000000	103.311341
2412.000000	103.324987
2410.000000	103.337243
2408.000000	103.351023
2406.000000	103.365739
2404.000000	103.381375
2402.000000	103.397288
2400.000000	103.413866
2398.000000	103.430429
2396.000000	103.450983
2394.000000	103.469475
2392.000000	103.487661
2390.000000	103.503824
2388.000000	103.518100
2386.000000	103.527217
2384.000000	103.522928
2382.000000	103.498084
2380.000000	103.448203
2378.000000	103.360160
2376.000000	103.231278
2374.000000	103.063348
2372.000000	102.868082
2370.000000	102.661865
2368.000000	102.465165
2366.000000	102.299526
2364.000000	102.190221
2362.000000	102.154431
2360.000000	102.203798
2358.000000	102.335719
2356.000000	102.544823
2354.000000	102.816567
2352.000000	103.118900
2350.000000	103.338886
2348.000000	103.330667
2346.000000	103.139450
2344.000000	102.934985
2342.000000	102.786599
2340.000000	102.701301
2338.000000	102.666466
2336.000000	102.667830
2334.000000	102.695320
2332.000000	102.747328
2330.000000	102.820061
2328.000000	102.914149
2326.000000	103.018066
2324.000000	103.123656
2322.000000	103.226981
2320.000000	103.327651
2318.000000	103.419789
2316.000000	103.502680
2314.000000	103.575418
2312.000000	103.639162
2310.000000	103.692283
2308.000000	103.738162
2306.000000	103.775079
2304.000000	103.806018
2302.000000	103.832481
2300.000000	103.857884
2298.000000	103.878388
2296.000000	103.894484
2294.000000	103.906564
2292.000000	103.920308
2290.000000	103.934089
2288.000000	103.947148
2286.000000	103.953895
2284.000000	103.958630
2282.000000	103.961818
2280.000000	103.962345
2278.000000	103.958161
2276.000000	103.955533
2274.000000	103.952815
2272.000000	103.948674
2270.000000	103.943347
2268.000000	103.939734
2266.000000	103.935217
2264.000000	103.933387
2262.000000	103.931340
2260.000000	103.929685
2258.000000	103.928135
2256.000000	103.929698
2254.000000	103.931374
2252.000000	103.935948
2250.000000	103.941145
2248.000000	103.949730
2246.000000	103.960156
2244.000000	103.973173
2242.000000	103.986053
2240.000000	104.000446
2238.000000	104.012469
2236.000000	104.027980
2234.000000	104.043501
2232.000000	104.058084
2230.000000	104.070257
2228.000000	104.082998
2226.000000	104.094660
2224.000000	104.106985
2222.000000	104.117865
2220.000000	104.128512
2218.000000	104.134981
2216.000000	104.142943
2214.000000	104.150040
2212.000000	104.155734
2210.000000	104.159340
2208.000000	104.165511
2206.000000	104.170823
2204.000000	104.177657
2202.000000	104.182716
2200.000000	104.188131
2198.000000	104.192511
2196.000000	104.195733
2194.000000	104.197228
2192.000000	104.201365
2190.000000	104.202643
2188.000000	104.204958
2186.000000	104.205542
2184.000000	104.205534
2182.000000	104.205004
2180.000000	104.205674
2178.000000	104.203950
2176.000000	104.200811
2174.000000	104.192165
2172.000000	104.170640
2170.000000	104.147641
2168.000000	104.160202
2166.000000	104.182604
2164.000000	104.191702
2162.000000	104.192687
2160.000000	104.192036
2158.000000	104.190162
2156.000000	104.192775
2154.000000	104.192554
2152.000000	104.190597
2150.000000	104.187905
2148.000000	104.189679
2146.000000	104.191164
2144.000000	104.191673
2142.000000	104.188940
2140.000000	104.187174
2138.000000	104.186202
2136.000000	104.187555
2134.000000	104.186270
2132.000000	104.184459
2130.000000	104.181710
2128.000000	104.182526
2126.000000	104.184801
2124.000000	104.186307
2122.000000	104.185880
2120.000000	104.188823
2118.000000	104.192946
2116.000000	104.196923
2114.000000	104.203499
2112.000000	104.215168
2110.000000	104.227677
2108.000000	104.241223
2106.000000	104.252766
2104.000000	104.265953
2102.000000	104.277296
2100.000000	104.287946
2098.000000	104.301746
2096.000000	104.319529
2094.000000	104.331209
2092.000000	104.341938
2090.000000	104.352511
2088.000000	104.369633
2086.000000	104.387523
2084.000000	104.406941
2082.000000	104.420882
2080.000000	104.436888
2078.000000	104.450696
2076.000000	104.468005
2074.000000	104.485217
2072.000000	104.505772
2070.000000	104.524257
2068.000000	104.542213
2066.000000	104.554221
2064.000000	104.578370
2062.000000	104.606752
2060.000000	104.629354
2058.000000	104.649063
2056.000000	104.670657
2054.000000	104.691235
2052.000000	104.715041
2050.000000	104.735436
2048.000000	104.756581
2046.000000	104.774531
2044.000000	104.790162
2042.000000	104.802104
2040.000000	104.824359
2038.000000	104.844518
2036.000000	104.857728
2034.000000	104.865669
2032.000000	104.866269
2030.000000	104.849070
2028.000000	104.857914
2026.000000	104.894229
2024.000000	104.918372
2022.000000	104.925711
2020.000000	104.926671
2018.000000	104.924637
2016.000000	104.947421
2014.000000	104.983239
2012.000000	105.008278
2010.000000	105.021852
2008.000000	105.036961
2006.000000	105.050267
2004.000000	105.061468
2002.000000	105.066613
2000.000000	105.072354
1998.000000	105.079132
1996.000000	105.081500
1994.000000	105.051360
1992.000000	105.024416
1990.000000	105.044932
1988.000000	105.067651
1986.000000	105.073095
1984.000000	105.071243
1982.000000	105.062633
1980.000000	105.051195
1978.000000	105.037485
1976.000000	105.024216
1974.000000	105.008068
1972.000000	104.990951
1970.000000	104.957572
1968.000000	104.909387
1966.000000	104.889478
1964.000000	104.884477
1962.000000	104.828002
1960.000000	104.707889
1958.000000	104.677075
1956.000000	104.759497
1954.000000	104.790223
1952.000000	104.771654
1950.000000	104.738442
1948.000000	104.716930
1946.000000	104.677451
1944.000000	104.601379
1942.000000	104.566783
1940.000000	104.614316
1938.000000	104.624532
1936.000000	104.601978
1934.000000	104.572039
1932.000000	104.548776
1930.000000	104.522716
1928.000000	104.494300
1926.000000	104.441166
1924.000000	104.362413
1922.000000	104.312690
1920.000000	104.231301
1918.000000	104.127577
1916.000000	104.182816
1914.000000	104.217774
1912.000000	104.162588
1910.000000	104.079065
1908.000000	104.034410
1906.000000	104.000922
1904.000000	103.957187
1902.000000	103.904445
1900.000000	103.858555
1898.000000	103.798978
1896.000000	103.738653
1894.000000	103.705876
1892.000000	103.658752
1890.000000	103.572425
1888.000000	103.595105
1886.000000	103.633125
1884.000000	103.625320
1882.000000	103.606157
1880.000000	103.588731
1878.000000	103.563054
1876.000000	103.542963
1874.000000	103.507976
1872.000000	103.396183
1870.000000	103.178944
1868.000000	103.146765
1866.000000	103.283601
1864.000000	103.350596
1862.000000	103.330136
1860.000000	103.298337
1858.000000	103.265484
1856.000000	103.238622
1854.000000	103.202183
1852.000000	103.164684
1850.000000	103.096672
1848.000000	102.977239
1846.000000	102.668859
1844.000000	102.472256
1842.000000	102.705717
1840.000000	102.858933
1838.000000	102.807494
1836.000000	102.755851
1834.000000	102.686944
1832.000000	102.485688
1830.000000	102.281480
1828.000000	102.298518
1826.000000	102.252568
1824.000000	102.241336
1822.000000	102.302176
1820.000000	102.271222
1818.000000	102.189776
1816.000000	102.125754
1814.000000	102.037273
1812.000000	101.892596
1810.000000	101.789958
1808.000000	101.756733
1806.000000	101.683752
1804.000000	101.531269
1802.000000	101.310326
1800.000000	101.182715
1798.000000	101.155159
1796.000000	101.030422
1794.000000	100.631543
1792.000000	100.393953
1790.000000	100.576948
1788.000000	100.658029
1786.000000	100.480839
1784.000000	100.349135
1782.000000	100.251691
1780.000000	100.146027
1778.000000	100.077024
1776.000000	99.851763
1774.000000	99.302148
1772.000000	99.014383
1770.000000	99.228674
1768.000000	99.338179
1766.000000	99.444983
1764.000000	99.312144
1762.000000	99.035675
1760.000000	99.018105
1758.000000	98.923910
1756.000000	98.790219
1754.000000	98.601159
1752.000000	98.094182
1750.000000	97.886726
1748.000000	97.967340
1746.000000	97.955540
1744.000000	97.806377
1742.000000	97.528110
1740.000000	97.259415
1738.000000	97.199143
1736.000000	96.603473
1734.000000	95.995226
1732.000000	96.515731
1730.000000	97.017949
1728.000000	97.127453
1726.000000	97.102431
1724.000000	97.013984
1722.000000	96.878968
1720.000000	96.311181
1718.000000	95.527083
1716.000000	95.645591
1714.000000	96.178119
1712.000000	96.418757
1710.000000	96.346595
1708.000000	96.098496
1706.000000	95.804954
1704.000000	95.635265
1702.000000	94.903761
1700.000000	94.355099
1698.000000	94.527126
1696.000000	94.451250
1694.000000	95.103369
1692.000000	95.676686
1690.000000	95.621147
1688.000000	95.301376
1686.000000	94.306078
1684.000000	93.919183
1682.000000	94.770549
1680.000000	95.247449
1678.000000	95.115558
1676.000000	94.677901
1674.000000	94.645304
1672.000000	94.651732
1670.000000	94.362502
1668.000000	94.484500
1666.000000	94.680299
1664.000000	94.438451
1662.000000	94.297328
1660.000000	94.417264
1658.000000	94.319805
1656.000000	93.481208
1654.000000	91.936392
1652.000000	92.000900
1650.000000	93.154025
1648.000000	93.045040
1646.000000	92.785653
1644.000000	93.184033
1642.000000	93.397234
1640.000000	93.198219
1638.000000	92.595834
1636.000000	91.893094
1634.000000	92.115851
1632.000000	92.517935
1630.000000	92.336953
1628.000000	91.980410
1626.000000	91.601042
1624.000000	91.058387
1622.000000	90.682943
1620.000000	90.279983
1618.000000	89.383063
1616.000000	88.908182
1614.000000	88.960913
1612.000000	88.512287
1610.000000	87.891139
1608.000000	87.571809
1606.000000	87.601141
1604.000000	87.793958
1602.000000	88.035334
1600.000000	88.270980
1598.000000	88.475965
1596.000000	88.624783
1594.000000	88.741096
1592.000000	88.807912
1590.000000	88.812387
1588.000000	88.774361
1586.000000	88.707090
1584.000000	88.632463
1582.000000	88.581464
1580.000000	88.460658
1578.000000	87.863309
1576.000000	87.431448
1574.000000	87.953116
1572.000000	88.100253
1570.000000	87.752675
1568.000000	87.741736
1566.000000	87.731963
1564.000000	87.450504
1562.000000	86.559904
1560.000000	85.162211
1558.000000	85.138609
1556.000000	86.093309
1554.000000	86.666066
1552.000000	87.127786
1550.000000	87.415965
1548.000000	87.596129
1546.000000	87.545040
1544.000000	87.311163
1542.000000	86.848341
1540.000000	86.617074
1538.000000	87.528962
1536.000000	88.433586
1534.000000	88.498603
1532.000000	88.746533
1530.000000	88.986316
1528.000000	88.865230
1526.000000	88.657061
1524.000000	88.383542
1522.000000	87.870761
1520.000000	87.916358
1518.000000	88.114651
1516.000000	88.025870
1514.000000	87.941795
1512.000000	87.747148
1510.000000	87.310062
1508.000000	86.244954
1506.000000	85.593563
1504.000000	85.712398
1502.000000	84.835928
1500.000000	82.407126
1498.000000	79.157312
1496.000000	76.643309
1494.000000	76.209567
1492.000000	77.296278
1490.000000	79.066499
1488.000000	80.999424
1486.000000	82.568452
1484.000000	83.597179
1482.000000	84.113921
1480.000000	84.353678
1478.000000	84.299086
1476.000000	83.994529
1474.000000	83.519910
1472.000000	83.328091
1470.000000	83.503214
1468.000000	83.334260
1466.000000	82.776991
1464.000000	82.386882
1462.000000	82.097942
1460.000000	81.195423
1458.000000	79.641308
1456.000000	78.613004
1454.000000	78.212160
1452.000000	77.721037
1450.000000	77.795891
1448.000000	78.626249
1446.000000	79.595945
1444.000000	80.084853
1442.000000	80.202283
1440.000000	80.112420
1438.000000	79.766027
1436.000000	79.740098
1434.000000	80.156756
1432.000000	80.243145
1430.000000	80.179457
1428.000000	80.207675
1426.000000	80.213244
1424.000000	80.113635
1422.000000	79.891477
1420.000000	79.408236
1418.000000	79.334946
1416.000000	79.486140
1414.000000	79.360896
1412.000000	79.008661
1410.000000	78.483310
1408.000000	77.731877
1406.000000	76.913341
1404.000000	76.443043
1402.000000	76.454006
1400.000000	76.683635
1398.000000	77.116313
1396.000000	77.493816
1394.000000	77.811216
1392.000000	78.134753
1390.000000	78.142685
1388.000000	77.831478
1386.000000	77.552223
1384.000000	77.456475
1382.000000	77.562101
1380.000000	77.659808
1378.000000	77.606353
1376.000000	77.451582
1374.000000	77.319020
1372.000000	77.282730
1370.000000	77.187507
1368.000000	77.031414
1366.000000	76.871885
1364.000000	76.643518
1362.000000	76.459251
1360.000000	76.363965
1358.000000	76.232701
1356.000000	76.036840
1354.000000	75.831576
1352.000000	75.628182
1350.000000	75.414876
1348.000000	75.196178
1346.000000	74.968210
1344.000000	74.718365
1342.000000	74.442697
1340.000000	74.188167
1338.000000	74.051213
1336.000000	73.978572
1334.000000	73.884074
1332.000000	73.732550
1330.000000	73.541349
1328.000000	73.319851
1326.000000	73.078101
1324.000000	72.815583
1322.000000	72.532340
1320.000000	72.227209
1318.000000	71.927233
1316.000000	71.630204
1314.000000	71.319546
1312.000000	71.004143
1310.000000	70.692795
1308.000000	70.368318
1306.000000	70.037864
1304.000000	69.699378
1302.000000	69.356638
1300.000000	69.011119
1298.000000	68.665672
1296.000000	68.312129
1294.000000	67.947247
1292.000000	67.563644
1290.000000	67.170214
1288.000000	66.768344
1286.000000	66.368346
1284.000000	65.955185
1282.000000	65.525644
1280.000000	65.071703
1278.000000	64.584450
1276.000000	64.044551
1274.000000	63.430909
1272.000000	62.703402
1270.000000	61.820312
1268.000000	60.719845
1266.000000	59.402898
1264.000000	58.035495
1262.000000	56.942702
1260.000000	56.397969
1258.000000	56.407170
1256.000000	56.694823
1254.000000	56.933661
1252.000000	56.926916
1250.000000	56.680738
1248.000000	56.288139
1246.000000	55.817243
1244.000000	55.306679
1242.000000	54.792325
1240.000000	54.283697
1238.000000	53.792204
1236.000000	53.316871
1234.000000	52.856277
1232.000000	52.404400
1230.000000	51.960052
1228.000000	51.513191
1226.000000	51.061852
1224.000000	50.603130
1222.000000	50.134651
1220.000000	49.644185
1218.000000	49.135517
1216.000000	48.615915
1214.000000	48.101085
1212.000000	47.609875
1210.000000	47.158444
1208.000000	46.740331
1206.000000	46.344849
1204.000000	45.949330
1202.000000	45.550089
1200.000000	45.155463
1198.000000	44.769804
1196.000000	44.378245
1194.000000	43.974103
1192.000000	43.556698
1190.000000	43.129072
1188.000000	42.685267
1186.000000	42.214898
1184.000000	41.636196
1182.000000	40.912154
1180.000000	40.343931
1178.000000	40.093475
1176.000000	39.862245
1174.000000	39.507989
1172.000000	39.083914
1170.000000	38.636243
1168.000000	38.172599
1166.000000	37.699544
1164.000000	37.225767
1162.000000	36.764425
1160.000000	36.310481
1158.000000	35.874908
1156.000000	35.451783
1154.000000	35.032941
1152.000000	34.609466
1150.000000	34.188692
1148.000000	33.758116
1146.000000	33.320696
1144.000000	32.890827
1142.000000	32.509045
1140.000000	32.195176
1138.000000	31.883114
1136.000000	31.522911
1134.000000	31.131294
1132.000000	30.715487
1130.000000	30.287803
1128.000000	29.864069
1126.000000	29.447325
1124.000000	29.021378
1122.000000	28.584021
1120.000000	28.134815
1118.000000	27.677249
1116.000000	27.211387
1114.000000	26.744139
1112.000000	26.276475
1110.000000	25.816171
1108.000000	25.362655
1106.000000	24.925736
1104.000000	24.505755
1102.000000	24.094708
1100.000000	23.684229
1098.000000	23.280297
1096.000000	22.882790
1094.000000	22.499636
1092.000000	22.133055
1090.000000	21.780289
1088.000000	21.436692
1086.000000	21.099074
1084.000000	20.751462
1082.000000	20.394042
1080.000000	20.055854
1078.000000	19.752956
1076.000000	19.475034
1074.000000	19.239788
1072.000000	19.024477
1070.000000	18.801458
1068.000000	18.569037
1066.000000	18.337935
1064.000000	18.105728
1062.000000	17.868804
1060.000000	17.620942
1058.000000	17.335169
1056.000000	16.947614
1054.000000	16.437114
1052.000000	15.929844
1050.000000	15.632245
1048.000000	15.594715
1046.000000	15.670512
1044.000000	15.671426
1042.000000	15.557538
1040.000000	15.375101
1038.000000	15.162414
1036.000000	14.931913
1034.000000	14.692418
1032.000000	14.444166
1030.000000	14.187905
1028.000000	13.923568
1026.000000	13.654833
1024.000000	13.382288
1022.000000	13.115519
1020.000000	12.861238
1018.000000	12.626319
1016.000000	12.411937
1014.000000	12.220829
1012.000000	12.049430
1010.000000	11.888845
1008.000000	11.722594
1006.000000	11.543482
1004.000000	11.347538
1002.000000	11.138895
1000.000000	10.914043
