PE IR       SUBTECH     SPECTRUM    ASCII       PEDS        4.00        
   -1
TE109A_044_80K_after_110K_BG.ASC
20/04/21
15:36:18.00
20/04/21
15:36:18.00
Administrator
TE109A, Tuesday, April 21 2020, 044.
1000.000000
#HDR
-1
-1
#GR
cm-1
EGY
1.0
0.0
6000.000000
-2.000000
2501
8
105.360973
10.956691
#DATA
6000.000000	16.514844
5998.000000	16.548918
5996.000000	16.582665
5994.000000	16.614402
5992.000000	16.644750
5990.000000	16.677561
5988.000000	16.711279
5986.000000	16.744847
5984.000000	16.776040
5982.000000	16.806812
5980.000000	16.839107
5978.000000	16.874421
5976.000000	16.908866
5974.000000	16.943869
5972.000000	16.977578
5970.000000	17.011033
5968.000000	17.043780
5966.000000	17.077054
5964.000000	17.112977
5962.000000	17.148981
5960.000000	17.182250
5958.000000	17.214125
5956.000000	17.247768
5954.000000	17.283442
5952.000000	17.318534
5950.000000	17.352119
5948.000000	17.384590
5946.000000	17.418295
5944.000000	17.452025
5942.000000	17.486741
5940.000000	17.522002
5938.000000	17.555668
5936.000000	17.588298
5934.000000	17.620691
5932.000000	17.654066
5930.000000	17.689716
5928.000000	17.725011
5926.000000	17.760438
5924.000000	17.794888
5922.000000	17.829178
5920.000000	17.862829
5918.000000	17.897207
5916.000000	17.932492
5914.000000	17.969639
5912.000000	18.006722
5910.000000	18.043938
5908.000000	18.080435
5906.000000	18.116497
5904.000000	18.152471
5902.000000	18.187993
5900.000000	18.223911
5898.000000	18.261611
5896.000000	18.300231
5894.000000	18.337891
5892.000000	18.373814
5890.000000	18.409311
5888.000000	18.444026
5886.000000	18.479912
5884.000000	18.514903
5882.000000	18.550796
5880.000000	18.588268
5878.000000	18.624756
5876.000000	18.660083
5874.000000	18.695577
5872.000000	18.730888
5870.000000	18.768484
5868.000000	18.806286
5866.000000	18.844286
5864.000000	18.881454
5862.000000	18.919032
5860.000000	18.958158
5858.000000	18.997045
5856.000000	19.032939
5854.000000	19.068138
5852.000000	19.105844
5850.000000	19.144853
5848.000000	19.183594
5846.000000	19.223466
5844.000000	19.265262
5842.000000	19.306933
5840.000000	19.346239
5838.000000	19.386702
5836.000000	19.428991
5834.000000	19.471907
5832.000000	19.513622
5830.000000	19.554678
5828.000000	19.595754
5826.000000	19.636777
5824.000000	19.677696
5822.000000	19.717995
5820.000000	19.757560
5818.000000	19.797016
5816.000000	19.837323
5814.000000	19.878665
5812.000000	19.920469
5810.000000	19.962403
5808.000000	20.004904
5806.000000	20.046831
5804.000000	20.088138
5802.000000	20.128808
5800.000000	20.168735
5798.000000	20.208489
5796.000000	20.247019
5794.000000	20.287464
5792.000000	20.329822
5790.000000	20.372550
5788.000000	20.413201
5786.000000	20.453306
5784.000000	20.494463
5782.000000	20.536345
5780.000000	20.577351
5778.000000	20.617966
5776.000000	20.660522
5774.000000	20.704250
5772.000000	20.747116
5770.000000	20.788227
5768.000000	20.827725
5766.000000	20.867615
5764.000000	20.908355
5762.000000	20.951061
5760.000000	20.993370
5758.000000	21.036406
5756.000000	21.079535
5754.000000	21.123194
5752.000000	21.165807
5750.000000	21.205798
5748.000000	21.244511
5746.000000	21.285408
5744.000000	21.326915
5742.000000	21.369278
5740.000000	21.409730
5738.000000	21.450700
5736.000000	21.491688
5734.000000	21.533239
5732.000000	21.574514
5730.000000	21.614705
5728.000000	21.653235
5726.000000	21.693089
5724.000000	21.735893
5722.000000	21.779667
5720.000000	21.820844
5718.000000	21.861868
5716.000000	21.904679
5714.000000	21.948267
5712.000000	21.990973
5710.000000	22.033715
5708.000000	22.079053
5706.000000	22.123856
5704.000000	22.167542
5702.000000	22.211900
5700.000000	22.257319
5698.000000	22.303278
5696.000000	22.347845
5694.000000	22.392728
5692.000000	22.437786
5690.000000	22.482133
5688.000000	22.527146
5686.000000	22.572966
5684.000000	22.619484
5682.000000	22.664838
5680.000000	22.708671
5678.000000	22.754034
5676.000000	22.800020
5674.000000	22.847182
5672.000000	22.892588
5670.000000	22.937476
5668.000000	22.981994
5666.000000	23.027486
5664.000000	23.072500
5662.000000	23.118378
5660.000000	23.163883
5658.000000	23.208585
5656.000000	23.253005
5654.000000	23.299308
5652.000000	23.345573
5650.000000	23.390987
5648.000000	23.435623
5646.000000	23.482770
5644.000000	23.529509
5642.000000	23.573178
5640.000000	23.616489
5638.000000	23.661614
5636.000000	23.707882
5634.000000	23.754269
5632.000000	23.800507
5630.000000	23.845705
5628.000000	23.890104
5626.000000	23.935172
5624.000000	23.982597
5622.000000	24.029659
5620.000000	24.074189
5618.000000	24.117998
5616.000000	24.161936
5614.000000	24.207616
5612.000000	24.252973
5610.000000	24.299440
5608.000000	24.344903
5606.000000	24.390598
5604.000000	24.436692
5602.000000	24.483057
5600.000000	24.529472
5598.000000	24.576341
5596.000000	24.623108
5594.000000	24.669144
5592.000000	24.714439
5590.000000	24.761965
5588.000000	24.810465
5586.000000	24.857020
5584.000000	24.902828
5582.000000	24.948864
5580.000000	24.995699
5578.000000	25.042035
5576.000000	25.089406
5574.000000	25.138348
5572.000000	25.187899
5570.000000	25.237547
5568.000000	25.285201
5566.000000	25.332417
5564.000000	25.378952
5562.000000	25.426515
5560.000000	25.473586
5558.000000	25.520867
5556.000000	25.567816
5554.000000	25.615157
5552.000000	25.663533
5550.000000	25.712926
5548.000000	25.760080
5546.000000	25.805965
5544.000000	25.852017
5542.000000	25.900401
5540.000000	25.949122
5538.000000	25.997330
5536.000000	26.044312
5534.000000	26.090018
5532.000000	26.135717
5530.000000	26.182911
5528.000000	26.231704
5526.000000	26.281088
5524.000000	26.328993
5522.000000	26.375197
5520.000000	26.421312
5518.000000	26.470014
5516.000000	26.519662
5514.000000	26.568175
5512.000000	26.614330
5510.000000	26.659312
5508.000000	26.704385
5506.000000	26.751064
5504.000000	26.800226
5502.000000	26.850588
5500.000000	26.900037
5498.000000	26.946067
5496.000000	26.989009
5494.000000	27.033940
5492.000000	27.081710
5490.000000	27.131444
5488.000000	27.182921
5486.000000	27.237456
5484.000000	27.292409
5482.000000	27.344325
5480.000000	27.389429
5478.000000	27.429915
5476.000000	27.472963
5474.000000	27.524678
5472.000000	27.580102
5470.000000	27.631663
5468.000000	27.680009
5466.000000	27.727340
5464.000000	27.772227
5462.000000	27.818060
5460.000000	27.869136
5458.000000	27.924500
5456.000000	27.978638
5454.000000	28.028809
5452.000000	28.075461
5450.000000	28.117833
5448.000000	28.158924
5446.000000	28.201750
5444.000000	28.246415
5442.000000	28.297590
5440.000000	28.352078
5438.000000	28.404393
5436.000000	28.453372
5434.000000	28.501125
5432.000000	28.547685
5430.000000	28.594376
5428.000000	28.646522
5426.000000	28.706682
5424.000000	28.765925
5422.000000	28.818983
5420.000000	28.866539
5418.000000	28.905708
5416.000000	28.938692
5414.000000	28.975341
5412.000000	29.023302
5410.000000	29.084178
5408.000000	29.145821
5406.000000	29.204606
5404.000000	29.259176
5402.000000	29.310583
5400.000000	29.356334
5398.000000	29.395447
5396.000000	29.433419
5394.000000	29.481090
5392.000000	29.538698
5390.000000	29.597254
5388.000000	29.647621
5386.000000	29.696990
5384.000000	29.750305
5382.000000	29.803678
5380.000000	29.847818
5378.000000	29.890445
5376.000000	29.940021
5374.000000	29.999900
5372.000000	30.060904
5370.000000	30.117964
5368.000000	30.168496
5366.000000	30.216319
5364.000000	30.266050
5362.000000	30.320000
5360.000000	30.372448
5358.000000	30.416068
5356.000000	30.453447
5354.000000	30.496916
5352.000000	30.548236
5350.000000	30.601704
5348.000000	30.644515
5346.000000	30.685214
5344.000000	30.734087
5342.000000	30.785700
5340.000000	30.834868
5338.000000	30.886855
5336.000000	30.948789
5334.000000	31.013129
5332.000000	31.065891
5330.000000	31.110004
5328.000000	31.157808
5326.000000	31.215744
5324.000000	31.277928
5322.000000	31.333409
5320.000000	31.382165
5318.000000	31.430561
5316.000000	31.480757
5314.000000	31.532354
5312.000000	31.581564
5310.000000	31.627725
5308.000000	31.675343
5306.000000	31.727158
5304.000000	31.781264
5302.000000	31.835084
5300.000000	31.887488
5298.000000	31.939866
5296.000000	31.990696
5294.000000	32.038221
5292.000000	32.083889
5290.000000	32.134201
5288.000000	32.188297
5286.000000	32.242749
5284.000000	32.295122
5282.000000	32.350047
5280.000000	32.407238
5278.000000	32.462866
5276.000000	32.516672
5274.000000	32.568214
5272.000000	32.615732
5270.000000	32.661161
5268.000000	32.704010
5266.000000	32.746872
5264.000000	32.794155
5262.000000	32.852966
5260.000000	32.916472
5258.000000	32.971058
5256.000000	33.018811
5254.000000	33.068700
5252.000000	33.117780
5250.000000	33.162855
5248.000000	33.208205
5246.000000	33.262799
5244.000000	33.324358
5242.000000	33.387173
5240.000000	33.446766
5238.000000	33.500342
5236.000000	33.549776
5234.000000	33.598964
5232.000000	33.648915
5230.000000	33.696629
5228.000000	33.740260
5226.000000	33.787825
5224.000000	33.845441
5222.000000	33.906888
5220.000000	33.961990
5218.000000	34.014323
5216.000000	34.069451
5214.000000	34.125020
5212.000000	34.170011
5210.000000	34.206257
5208.000000	34.246821
5206.000000	34.303790
5204.000000	34.371368
5202.000000	34.436076
5200.000000	34.491612
5198.000000	34.544416
5196.000000	34.598473
5194.000000	34.654654
5192.000000	34.709273
5190.000000	34.762038
5188.000000	34.813561
5186.000000	34.866677
5184.000000	34.920906
5182.000000	34.976448
5180.000000	35.032519
5178.000000	35.088515
5176.000000	35.143672
5174.000000	35.197820
5172.000000	35.251500
5170.000000	35.305605
5168.000000	35.358984
5166.000000	35.412157
5164.000000	35.465872
5162.000000	35.521430
5160.000000	35.575614
5158.000000	35.628527
5156.000000	35.682351
5154.000000	35.737460
5152.000000	35.792560
5150.000000	35.848822
5148.000000	35.905782
5146.000000	35.960907
5144.000000	36.013812
5142.000000	36.067178
5140.000000	36.120683
5138.000000	36.174059
5136.000000	36.227803
5134.000000	36.282902
5132.000000	36.338617
5130.000000	36.393932
5128.000000	36.446882
5126.000000	36.498927
5124.000000	36.551810
5122.000000	36.606161
5120.000000	36.660223
5118.000000	36.714844
5116.000000	36.769734
5114.000000	36.825395
5112.000000	36.881552
5110.000000	36.937183
5108.000000	36.991321
5106.000000	37.046146
5104.000000	37.102434
5102.000000	37.159503
5100.000000	37.214657
5098.000000	37.269647
5096.000000	37.324017
5094.000000	37.379531
5092.000000	37.435287
5090.000000	37.492774
5088.000000	37.550338
5086.000000	37.607363
5084.000000	37.664170
5082.000000	37.721256
5080.000000	37.777228
5078.000000	37.833724
5076.000000	37.890122
5074.000000	37.946913
5072.000000	38.002797
5070.000000	38.059421
5068.000000	38.115379
5066.000000	38.170992
5064.000000	38.227340
5062.000000	38.285564
5060.000000	38.343770
5058.000000	38.401042
5056.000000	38.456193
5054.000000	38.510603
5052.000000	38.565151
5050.000000	38.621869
5048.000000	38.678995
5046.000000	38.736245
5044.000000	38.791651
5042.000000	38.845088
5040.000000	38.898936
5038.000000	38.955284
5036.000000	39.010917
5034.000000	39.066552
5032.000000	39.124043
5030.000000	39.183249
5028.000000	39.239346
5026.000000	39.294295
5024.000000	39.349076
5022.000000	39.405368
5020.000000	39.461711
5018.000000	39.516995
5016.000000	39.572368
5014.000000	39.630302
5012.000000	39.690049
5010.000000	39.747591
5008.000000	39.802401
5006.000000	39.857658
5004.000000	39.915016
5002.000000	39.973668
5000.000000	40.031832
4998.000000	40.091106
4996.000000	40.149389
4994.000000	40.205136
4992.000000	40.259978
4990.000000	40.317510
4988.000000	40.377335
4986.000000	40.437329
4984.000000	40.496597
4982.000000	40.555320
4980.000000	40.613247
4978.000000	40.670738
4976.000000	40.728250
4974.000000	40.786865
4972.000000	40.845506
4970.000000	40.904060
4968.000000	40.960788
4966.000000	41.017023
4964.000000	41.073701
4962.000000	41.133065
4960.000000	41.192055
4958.000000	41.249500
4956.000000	41.305164
4954.000000	41.362669
4952.000000	41.420920
4950.000000	41.477325
4948.000000	41.531797
4946.000000	41.588067
4944.000000	41.646164
4942.000000	41.703707
4940.000000	41.759623
4938.000000	41.816395
4936.000000	41.874408
4934.000000	41.932764
4932.000000	41.989126
4930.000000	42.044655
4928.000000	42.099537
4926.000000	42.155559
4924.000000	42.212372
4922.000000	42.269597
4920.000000	42.326118
4918.000000	42.383512
4916.000000	42.441913
4914.000000	42.500842
4912.000000	42.559596
4910.000000	42.618704
4908.000000	42.676006
4906.000000	42.731055
4904.000000	42.787155
4902.000000	42.848407
4900.000000	42.911406
4898.000000	42.971416
4896.000000	43.028876
4894.000000	43.087281
4892.000000	43.145806
4890.000000	43.204047
4888.000000	43.262809
4886.000000	43.324143
4884.000000	43.384503
4882.000000	43.444482
4880.000000	43.504302
4878.000000	43.564548
4876.000000	43.621794
4874.000000	43.677885
4872.000000	43.735787
4870.000000	43.797248
4868.000000	43.858167
4866.000000	43.915665
4864.000000	43.971004
4862.000000	44.029211
4860.000000	44.087576
4858.000000	44.145047
4856.000000	44.203342
4854.000000	44.264095
4852.000000	44.322777
4850.000000	44.378610
4848.000000	44.433974
4846.000000	44.491658
4844.000000	44.550035
4842.000000	44.608482
4840.000000	44.666783
4838.000000	44.725452
4836.000000	44.783159
4834.000000	44.839751
4832.000000	44.895760
4830.000000	44.953259
4828.000000	45.011667
4826.000000	45.070426
4824.000000	45.128055
4822.000000	45.185897
4820.000000	45.244979
4818.000000	45.305878
4816.000000	45.364780
4814.000000	45.422668
4812.000000	45.481274
4810.000000	45.541181
4808.000000	45.600279
4806.000000	45.659093
4804.000000	45.717849
4802.000000	45.779022
4800.000000	45.840016
4798.000000	45.899744
4796.000000	45.960215
4794.000000	46.023156
4792.000000	46.085278
4790.000000	46.145652
4788.000000	46.204208
4786.000000	46.263443
4784.000000	46.323921
4782.000000	46.384661
4780.000000	46.444443
4778.000000	46.503965
4776.000000	46.563021
4774.000000	46.623056
4772.000000	46.683280
4770.000000	46.742456
4768.000000	46.800868
4766.000000	46.859918
4764.000000	46.918573
4762.000000	46.978082
4760.000000	47.037675
4758.000000	47.096525
4756.000000	47.154535
4754.000000	47.213844
4752.000000	47.272631
4750.000000	47.331093
4748.000000	47.388892
4746.000000	47.446010
4744.000000	47.502958
4742.000000	47.562438
4740.000000	47.622533
4738.000000	47.681094
4736.000000	47.738497
4734.000000	47.797339
4732.000000	47.855508
4730.000000	47.912641
4728.000000	47.970462
4726.000000	48.030942
4724.000000	48.091070
4722.000000	48.151351
4720.000000	48.211095
4718.000000	48.271130
4716.000000	48.331458
4714.000000	48.393257
4712.000000	48.454376
4710.000000	48.516025
4708.000000	48.579118
4706.000000	48.643083
4704.000000	48.706119
4702.000000	48.769497
4700.000000	48.833711
4698.000000	48.897197
4696.000000	48.958321
4694.000000	49.018673
4692.000000	49.079983
4690.000000	49.141997
4688.000000	49.202735
4686.000000	49.263465
4684.000000	49.324880
4682.000000	49.388029
4680.000000	49.449858
4678.000000	49.509543
4676.000000	49.569392
4674.000000	49.632173
4672.000000	49.694364
4670.000000	49.755538
4668.000000	49.816350
4666.000000	49.877169
4664.000000	49.936192
4662.000000	49.995127
4660.000000	50.056502
4658.000000	50.121304
4656.000000	50.184459
4654.000000	50.245409
4652.000000	50.304583
4650.000000	50.364828
4648.000000	50.425981
4646.000000	50.487986
4644.000000	50.549078
4642.000000	50.610572
4640.000000	50.671225
4638.000000	50.733033
4636.000000	50.795615
4634.000000	50.857555
4632.000000	50.916645
4630.000000	50.976199
4628.000000	51.036469
4626.000000	51.098029
4624.000000	51.159666
4622.000000	51.222237
4620.000000	51.284207
4618.000000	51.345817
4616.000000	51.407769
4614.000000	51.471885
4612.000000	51.536904
4610.000000	51.601394
4608.000000	51.663874
4606.000000	51.727093
4604.000000	51.792684
4602.000000	51.859661
4600.000000	51.925629
4598.000000	51.992186
4596.000000	52.058387
4594.000000	52.122596
4592.000000	52.185421
4590.000000	52.249330
4588.000000	52.313375
4586.000000	52.377032
4584.000000	52.439588
4582.000000	52.502949
4580.000000	52.567957
4578.000000	52.634064
4576.000000	52.699180
4574.000000	52.764206
4572.000000	52.827945
4570.000000	52.891270
4568.000000	52.953856
4566.000000	53.016415
4564.000000	53.080739
4562.000000	53.146392
4560.000000	53.208510
4558.000000	53.269565
4556.000000	53.332178
4554.000000	53.395211
4552.000000	53.457385
4550.000000	53.520842
4548.000000	53.583331
4546.000000	53.645099
4544.000000	53.707837
4542.000000	53.771370
4540.000000	53.833873
4538.000000	53.897338
4536.000000	53.959834
4534.000000	54.019821
4532.000000	54.081160
4530.000000	54.146663
4528.000000	54.212611
4526.000000	54.276704
4524.000000	54.338724
4522.000000	54.401825
4520.000000	54.466828
4518.000000	54.531806
4516.000000	54.595459
4514.000000	54.660755
4512.000000	54.726764
4510.000000	54.792555
4508.000000	54.856790
4506.000000	54.920459
4504.000000	54.984439
4502.000000	55.051015
4500.000000	55.118257
4498.000000	55.184728
4496.000000	55.249869
4494.000000	55.315928
4492.000000	55.381050
4490.000000	55.445620
4488.000000	55.510477
4486.000000	55.575861
4484.000000	55.640178
4482.000000	55.705033
4480.000000	55.769673
4478.000000	55.834477
4476.000000	55.899185
4474.000000	55.962875
4472.000000	56.023974
4470.000000	56.084363
4468.000000	56.145906
4466.000000	56.210174
4464.000000	56.274331
4462.000000	56.337576
4460.000000	56.400053
4458.000000	56.462255
4456.000000	56.524337
4454.000000	56.587817
4452.000000	56.649973
4450.000000	56.710762
4448.000000	56.771706
4446.000000	56.833774
4444.000000	56.896430
4442.000000	56.959704
4440.000000	57.022444
4438.000000	57.085409
4436.000000	57.148563
4434.000000	57.212831
4432.000000	57.277712
4430.000000	57.341961
4428.000000	57.403813
4426.000000	57.466015
4424.000000	57.528781
4422.000000	57.592005
4420.000000	57.655077
4418.000000	57.719966
4416.000000	57.785584
4414.000000	57.850400
4412.000000	57.913709
4410.000000	57.977459
4408.000000	58.040709
4406.000000	58.105099
4404.000000	58.171343
4402.000000	58.238450
4400.000000	58.303103
4398.000000	58.365423
4396.000000	58.426921
4394.000000	58.490764
4392.000000	58.554536
4390.000000	58.617143
4388.000000	58.678890
4386.000000	58.742153
4384.000000	58.804605
4382.000000	58.865980
4380.000000	58.927331
4378.000000	58.988422
4376.000000	59.047324
4374.000000	59.107089
4372.000000	59.166157
4370.000000	59.225194
4368.000000	59.286714
4366.000000	59.348406
4364.000000	59.408542
4362.000000	59.470937
4360.000000	59.532951
4358.000000	59.593767
4356.000000	59.655357
4354.000000	59.718724
4352.000000	59.782741
4350.000000	59.847154
4348.000000	59.909214
4346.000000	59.970493
4344.000000	60.033173
4342.000000	60.097880
4340.000000	60.162325
4338.000000	60.226341
4336.000000	60.288793
4334.000000	60.351775
4332.000000	60.416402
4330.000000	60.481328
4328.000000	60.544166
4326.000000	60.608776
4324.000000	60.676007
4322.000000	60.743822
4320.000000	60.810415
4318.000000	60.878532
4316.000000	60.947581
4314.000000	61.015073
4312.000000	61.080349
4310.000000	61.147583
4308.000000	61.215760
4306.000000	61.283081
4304.000000	61.349074
4302.000000	61.416502
4300.000000	61.483774
4298.000000	61.548774
4296.000000	61.611958
4294.000000	61.676910
4292.000000	61.742279
4290.000000	61.806527
4288.000000	61.868976
4286.000000	61.931376
4284.000000	61.991832
4282.000000	62.050475
4280.000000	62.109416
4278.000000	62.171029
4276.000000	62.232981
4274.000000	62.293175
4272.000000	62.350536
4270.000000	62.407949
4268.000000	62.466724
4266.000000	62.527978
4264.000000	62.589414
4262.000000	62.651096
4260.000000	62.713386
4258.000000	62.776310
4256.000000	62.839257
4254.000000	62.904315
4252.000000	62.969400
4250.000000	63.034133
4248.000000	63.097914
4246.000000	63.161968
4244.000000	63.226493
4242.000000	63.289883
4240.000000	63.351181
4238.000000	63.415099
4236.000000	63.481345
4234.000000	63.547473
4232.000000	63.612200
4230.000000	63.676997
4228.000000	63.742090
4226.000000	63.807413
4224.000000	63.870541
4222.000000	63.933111
4220.000000	63.997321
4218.000000	64.063131
4216.000000	64.127947
4214.000000	64.194113
4212.000000	64.261175
4210.000000	64.326763
4208.000000	64.391563
4206.000000	64.457731
4204.000000	64.524099
4202.000000	64.592001
4200.000000	64.660814
4198.000000	64.729725
4196.000000	64.798429
4194.000000	64.867254
4192.000000	64.935501
4190.000000	65.003638
4188.000000	65.072280
4186.000000	65.141798
4184.000000	65.209149
4182.000000	65.273937
4180.000000	65.338275
4178.000000	65.403962
4176.000000	65.469869
4174.000000	65.535067
4172.000000	65.597484
4170.000000	65.660902
4168.000000	65.726085
4166.000000	65.789904
4164.000000	65.852190
4162.000000	65.917549
4160.000000	65.984277
4158.000000	66.049344
4156.000000	66.111601
4154.000000	66.174400
4152.000000	66.239778
4150.000000	66.306325
4148.000000	66.369836
4146.000000	66.433867
4144.000000	66.500774
4142.000000	66.568573
4140.000000	66.634473
4138.000000	66.699179
4136.000000	66.764052
4134.000000	66.830886
4132.000000	66.897615
4130.000000	66.963326
4128.000000	67.028370
4126.000000	67.094501
4124.000000	67.160449
4122.000000	67.227521
4120.000000	67.295403
4118.000000	67.361772
4116.000000	67.426344
4114.000000	67.492199
4112.000000	67.557767
4110.000000	67.622700
4108.000000	67.685852
4106.000000	67.750347
4104.000000	67.818609
4102.000000	67.885087
4100.000000	67.944725
4098.000000	68.005827
4096.000000	68.071579
4094.000000	68.138189
4092.000000	68.203356
4090.000000	68.269561
4088.000000	68.338904
4086.000000	68.410516
4084.000000	68.479398
4082.000000	68.546497
4080.000000	68.613756
4078.000000	68.681856
4076.000000	68.748262
4074.000000	68.813112
4072.000000	68.878765
4070.000000	68.945344
4068.000000	69.010774
4066.000000	69.076235
4064.000000	69.140700
4062.000000	69.205759
4060.000000	69.271333
4058.000000	69.335619
4056.000000	69.399463
4054.000000	69.464758
4052.000000	69.529315
4050.000000	69.593065
4048.000000	69.656213
4046.000000	69.719527
4044.000000	69.784055
4042.000000	69.851762
4040.000000	69.919624
4038.000000	69.986499
4036.000000	70.055114
4034.000000	70.125577
4032.000000	70.193797
4030.000000	70.259633
4028.000000	70.324220
4026.000000	70.390416
4024.000000	70.459202
4022.000000	70.527791
4020.000000	70.594232
4018.000000	70.662619
4016.000000	70.732821
4014.000000	70.802584
4012.000000	70.870250
4010.000000	70.936037
4008.000000	71.003389
4006.000000	71.074551
4004.000000	71.144936
4002.000000	71.214039
4000.000000	71.282908
3998.000000	71.348522
3996.000000	71.410129
3994.000000	71.473263
3992.000000	71.537884
3990.000000	71.603949
3988.000000	71.670716
3986.000000	71.735453
3984.000000	71.797506
3982.000000	71.859703
3980.000000	71.921311
3978.000000	71.981327
3976.000000	72.039742
3974.000000	72.100016
3972.000000	72.163917
3970.000000	72.228998
3968.000000	72.292396
3966.000000	72.353925
3964.000000	72.409922
3962.000000	72.466656
3960.000000	72.530721
3958.000000	72.597298
3956.000000	72.660305
3954.000000	72.715927
3952.000000	72.756686
3950.000000	72.794356
3948.000000	72.853041
3946.000000	72.917799
3944.000000	72.968607
3942.000000	73.040955
3940.000000	73.140004
3938.000000	73.223558
3936.000000	73.264014
3934.000000	73.274562
3932.000000	73.315841
3930.000000	73.411676
3928.000000	73.498150
3926.000000	73.548496
3924.000000	73.606016
3922.000000	73.663573
3920.000000	73.684998
3918.000000	73.722984
3916.000000	73.842900
3914.000000	73.994114
3912.000000	74.098604
3910.000000	74.150817
3908.000000	74.118872
3906.000000	73.982381
3904.000000	73.869509
3902.000000	73.900243
3900.000000	74.066892
3898.000000	74.313463
3896.000000	74.497232
3894.000000	74.494666
3892.000000	74.451382
3890.000000	74.520912
3888.000000	74.533138
3886.000000	74.503887
3884.000000	74.619316
3882.000000	74.750907
3880.000000	74.862794
3878.000000	75.001269
3876.000000	75.046369
3874.000000	74.977578
3872.000000	74.828624
3870.000000	74.790448
3868.000000	74.958942
3866.000000	75.097836
3864.000000	75.199552
3862.000000	75.378891
3860.000000	75.527672
3858.000000	75.357570
3856.000000	74.715752
3854.000000	74.280885
3852.000000	74.719000
3850.000000	75.511942
3848.000000	75.952107
3846.000000	76.024785
3844.000000	75.968747
3842.000000	75.845175
3840.000000	75.593332
3838.000000	75.483328
3836.000000	75.746709
3834.000000	76.085607
3832.000000	76.295373
3830.000000	76.454838
3828.000000	76.560967
3826.000000	76.589364
3824.000000	76.459323
3822.000000	76.293591
3820.000000	76.318978
3818.000000	76.325788
3816.000000	76.390586
3814.000000	76.773631
3812.000000	77.110587
3810.000000	77.078085
3808.000000	76.897884
3806.000000	76.895849
3804.000000	76.854635
3802.000000	76.742545
3800.000000	76.958435
3798.000000	77.305604
3796.000000	77.521416
3794.000000	77.696534
3792.000000	77.823102
3790.000000	77.888990
3788.000000	77.923384
3786.000000	77.951113
3784.000000	77.991534
3782.000000	78.002558
3780.000000	78.009693
3778.000000	78.113736
3776.000000	78.254265
3774.000000	78.299945
3772.000000	78.225568
3770.000000	78.180047
3768.000000	78.257806
3766.000000	78.378998
3764.000000	78.488911
3762.000000	78.514636
3760.000000	78.489501
3758.000000	78.537590
3756.000000	78.491180
3754.000000	78.114386
3752.000000	77.703822
3750.000000	77.734373
3748.000000	77.923636
3746.000000	77.797302
3744.000000	77.927154
3742.000000	78.564160
3740.000000	78.909828
3738.000000	78.764076
3736.000000	78.621860
3734.000000	78.711721
3732.000000	78.974771
3730.000000	79.286455
3728.000000	79.438171
3726.000000	79.475578
3724.000000	79.542294
3722.000000	79.644141
3720.000000	79.770471
3718.000000	79.879953
3716.000000	79.853302
3714.000000	79.626119
3712.000000	79.482895
3710.000000	79.670983
3708.000000	79.999840
3706.000000	80.202430
3704.000000	80.218832
3702.000000	80.216866
3700.000000	80.332216
3698.000000	80.464550
3696.000000	80.516174
3694.000000	80.442535
3692.000000	80.180104
3690.000000	79.880118
3688.000000	79.975807
3686.000000	80.441719
3684.000000	80.764532
3682.000000	80.809722
3680.000000	80.660554
3678.000000	80.279515
3676.000000	80.005850
3674.000000	80.131605
3672.000000	80.231403
3670.000000	80.333347
3668.000000	80.721800
3666.000000	81.082571
3664.000000	81.222830
3662.000000	81.254984
3660.000000	81.198803
3658.000000	81.037743
3656.000000	80.982478
3654.000000	81.003512
3652.000000	80.754681
3650.000000	80.463785
3648.000000	80.611825
3646.000000	81.047504
3644.000000	81.355157
3642.000000	81.463783
3640.000000	81.497589
3638.000000	81.508296
3636.000000	81.487073
3634.000000	81.409682
3632.000000	81.140212
3630.000000	80.794616
3628.000000	80.886070
3626.000000	81.310494
3624.000000	81.521219
3622.000000	81.411546
3620.000000	81.247561
3618.000000	81.279614
3616.000000	81.380905
3614.000000	81.372678
3612.000000	81.310670
3610.000000	81.268033
3608.000000	81.345408
3606.000000	81.520851
3604.000000	81.619132
3602.000000	81.612829
3600.000000	81.587367
3598.000000	81.562388
3596.000000	81.534849
3594.000000	81.544717
3592.000000	81.533639
3590.000000	81.402354
3588.000000	81.296814
3586.000000	81.389322
3584.000000	81.549083
3582.000000	81.619741
3580.000000	81.622697
3578.000000	81.615315
3576.000000	81.612581
3574.000000	81.611482
3572.000000	81.569759
3570.000000	81.429532
3568.000000	81.289969
3566.000000	81.319130
3564.000000	81.445446
3562.000000	81.517481
3560.000000	81.538460
3558.000000	81.549703
3556.000000	81.539277
3554.000000	81.504242
3552.000000	81.482302
3550.000000	81.469220
3548.000000	81.422149
3546.000000	81.385200
3544.000000	81.408189
3542.000000	81.447392
3540.000000	81.452843
3538.000000	81.427727
3536.000000	81.405359
3534.000000	81.394088
3532.000000	81.361885
3530.000000	81.305426
3528.000000	81.252470
3526.000000	81.209160
3524.000000	81.172346
3522.000000	81.153267
3520.000000	81.138919
3518.000000	81.114784
3516.000000	81.082455
3514.000000	81.039244
3512.000000	80.983761
3510.000000	80.928921
3508.000000	80.887119
3506.000000	80.831931
3504.000000	80.758452
3502.000000	80.707140
3500.000000	80.673634
3498.000000	80.625954
3496.000000	80.569808
3494.000000	80.519876
3492.000000	80.469236
3490.000000	80.412997
3488.000000	80.359775
3486.000000	80.314291
3484.000000	80.269640
3482.000000	80.233467
3480.000000	80.218721
3478.000000	80.215680
3476.000000	80.211640
3474.000000	80.212576
3472.000000	80.221565
3470.000000	80.231760
3468.000000	80.247274
3466.000000	80.276717
3464.000000	80.311528
3462.000000	80.347561
3460.000000	80.388545
3458.000000	80.426955
3456.000000	80.457737
3454.000000	80.485194
3452.000000	80.507455
3450.000000	80.514667
3448.000000	80.514995
3446.000000	80.539632
3444.000000	80.587854
3442.000000	80.646579
3440.000000	80.720716
3438.000000	80.808507
3436.000000	80.910132
3434.000000	81.032075
3432.000000	81.169484
3430.000000	81.311829
3428.000000	81.452992
3426.000000	81.588727
3424.000000	81.710894
3422.000000	81.820331
3420.000000	81.931076
3418.000000	82.041472
3416.000000	82.137778
3414.000000	82.219853
3412.000000	82.293067
3410.000000	82.358191
3408.000000	82.417623
3406.000000	82.475026
3404.000000	82.527660
3402.000000	82.576185
3400.000000	82.632892
3398.000000	82.705521
3396.000000	82.784571
3394.000000	82.854081
3392.000000	82.921294
3390.000000	82.999536
3388.000000	83.074789
3386.000000	83.136942
3384.000000	83.194784
3382.000000	83.251160
3380.000000	83.304698
3378.000000	83.355018
3376.000000	83.402424
3374.000000	83.447185
3372.000000	83.487765
3370.000000	83.524263
3368.000000	83.564499
3366.000000	83.613722
3364.000000	83.665366
3362.000000	83.711867
3360.000000	83.755750
3358.000000	83.797731
3356.000000	83.838563
3354.000000	83.881495
3352.000000	83.921389
3350.000000	83.960352
3348.000000	84.005813
3346.000000	84.051674
3344.000000	84.092793
3342.000000	84.130474
3340.000000	84.165202
3338.000000	84.200052
3336.000000	84.241285
3334.000000	84.285659
3332.000000	84.327162
3330.000000	84.363991
3328.000000	84.396648
3326.000000	84.429380
3324.000000	84.467753
3322.000000	84.508869
3320.000000	84.547316
3318.000000	84.582044
3316.000000	84.616094
3314.000000	84.648431
3312.000000	84.678525
3310.000000	84.705923
3308.000000	84.732533
3306.000000	84.762915
3304.000000	84.803639
3302.000000	84.850794
3300.000000	84.891404
3298.000000	84.925968
3296.000000	84.960366
3294.000000	84.992165
3292.000000	85.023795
3290.000000	85.062175
3288.000000	85.104914
3286.000000	85.146248
3284.000000	85.185037
3282.000000	85.223224
3280.000000	85.260446
3278.000000	85.293813
3276.000000	85.325519
3274.000000	85.359981
3272.000000	85.399175
3270.000000	85.442106
3268.000000	85.488423
3266.000000	85.534321
3264.000000	85.579714
3262.000000	85.624204
3260.000000	85.665780
3258.000000	85.706801
3256.000000	85.749025
3254.000000	85.794993
3252.000000	85.845733
3250.000000	85.894979
3248.000000	85.939148
3246.000000	85.982694
3244.000000	86.033144
3242.000000	86.086291
3240.000000	86.137859
3238.000000	86.187249
3236.000000	86.232510
3234.000000	86.276927
3232.000000	86.327670
3230.000000	86.382734
3228.000000	86.434905
3226.000000	86.484507
3224.000000	86.533260
3222.000000	86.579606
3220.000000	86.626831
3218.000000	86.675831
3216.000000	86.722772
3214.000000	86.770268
3212.000000	86.821385
3210.000000	86.874534
3208.000000	86.932968
3206.000000	86.996918
3204.000000	87.064231
3202.000000	87.132279
3200.000000	87.201073
3198.000000	87.271600
3196.000000	87.346457
3194.000000	87.421338
3192.000000	87.492454
3190.000000	87.563374
3188.000000	87.635202
3186.000000	87.705057
3184.000000	87.776418
3182.000000	87.848198
3180.000000	87.916986
3178.000000	87.986776
3176.000000	88.059124
3174.000000	88.131445
3172.000000	88.203744
3170.000000	88.277866
3168.000000	88.354324
3166.000000	88.429769
3164.000000	88.504019
3162.000000	88.579953
3160.000000	88.659312
3158.000000	88.738498
3156.000000	88.815659
3154.000000	88.888116
3152.000000	88.962852
3150.000000	89.046411
3148.000000	89.128703
3146.000000	89.204731
3144.000000	89.278469
3142.000000	89.351434
3140.000000	89.423059
3138.000000	89.494828
3136.000000	89.564533
3134.000000	89.632151
3132.000000	89.702127
3130.000000	89.769972
3128.000000	89.831770
3126.000000	89.890366
3124.000000	89.948385
3122.000000	90.002078
3120.000000	90.053674
3118.000000	90.106042
3116.000000	90.161421
3114.000000	90.222952
3112.000000	90.282351
3110.000000	90.331427
3108.000000	90.381556
3106.000000	90.439978
3104.000000	90.499604
3102.000000	90.558673
3100.000000	90.623659
3098.000000	90.690680
3096.000000	90.754852
3094.000000	90.819331
3092.000000	90.882168
3090.000000	90.940629
3088.000000	90.997900
3086.000000	91.050990
3084.000000	91.100201
3082.000000	91.146024
3080.000000	91.184980
3078.000000	91.222961
3076.000000	91.262393
3074.000000	91.291313
3072.000000	91.309532
3070.000000	91.319452
3068.000000	91.326187
3066.000000	91.343310
3064.000000	91.378179
3062.000000	91.426222
3060.000000	91.480162
3058.000000	91.535118
3056.000000	91.595666
3054.000000	91.660111
3052.000000	91.719085
3050.000000	91.770712
3048.000000	91.818485
3046.000000	91.857708
3044.000000	91.888281
3042.000000	91.913517
3040.000000	91.938495
3038.000000	91.959856
3036.000000	91.970749
3034.000000	91.971949
3032.000000	91.959806
3030.000000	91.926401
3028.000000	91.858991
3026.000000	91.750649
3024.000000	91.621649
3022.000000	91.505193
3020.000000	91.439355
3018.000000	91.465954
3016.000000	91.610124
3014.000000	91.850802
3012.000000	92.137498
3010.000000	92.414892
3008.000000	92.640330
3006.000000	92.799586
3004.000000	92.910999
3002.000000	92.991065
3000.000000	93.048355
2998.000000	93.089473
2996.000000	93.120855
2994.000000	93.141975
2992.000000	93.154135
2990.000000	93.155917
2988.000000	93.141621
2986.000000	93.106580
2984.000000	93.046624
2982.000000	92.958930
2980.000000	92.838949
2978.000000	92.673554
2976.000000	92.445932
2974.000000	92.140089
2972.000000	91.742618
2970.000000	91.257745
2968.000000	90.734497
2966.000000	90.252362
2964.000000	89.895904
2962.000000	89.723774
2960.000000	89.739630
2958.000000	89.882975
2956.000000	90.075105
2954.000000	90.258642
2952.000000	90.401459
2950.000000	90.471283
2948.000000	90.434212
2946.000000	90.269028
2944.000000	89.971336
2942.000000	89.555937
2940.000000	89.062186
2938.000000	88.550229
2936.000000	88.078237
2934.000000	87.656442
2932.000000	87.254876
2930.000000	86.862652
2928.000000	86.533692
2926.000000	86.370202
2924.000000	86.480391
2922.000000	86.904273
2920.000000	87.585789
2918.000000	88.411106
2916.000000	89.268429
2914.000000	90.072952
2912.000000	90.764959
2910.000000	91.316346
2908.000000	91.746250
2906.000000	92.094231
2904.000000	92.395790
2902.000000	92.671625
2900.000000	92.927968
2898.000000	93.166494
2896.000000	93.392356
2894.000000	93.607291
2892.000000	93.812218
2890.000000	94.000308
2888.000000	94.162877
2886.000000	94.291414
2884.000000	94.380281
2882.000000	94.422596
2880.000000	94.419365
2878.000000	94.367415
2876.000000	94.255960
2874.000000	94.075447
2872.000000	93.818612
2870.000000	93.458011
2868.000000	92.969927
2866.000000	92.392212
2864.000000	91.849539
2862.000000	91.498323
2860.000000	91.426376
2858.000000	91.595325
2856.000000	91.898088
2854.000000	92.256986
2852.000000	92.671812
2850.000000	93.182004
2848.000000	93.790481
2846.000000	94.413648
2844.000000	94.956336
2842.000000	95.388838
2840.000000	95.727834
2838.000000	95.998975
2836.000000	96.221132
2834.000000	96.403572
2832.000000	96.556689
2830.000000	96.689990
2828.000000	96.813572
2826.000000	96.924897
2824.000000	97.025464
2822.000000	97.119539
2820.000000	97.207379
2818.000000	97.285826
2816.000000	97.355722
2814.000000	97.420623
2812.000000	97.480791
2810.000000	97.533921
2808.000000	97.583556
2806.000000	97.630481
2804.000000	97.676421
2802.000000	97.720690
2800.000000	97.763106
2798.000000	97.803138
2796.000000	97.844280
2794.000000	97.887029
2792.000000	97.935493
2790.000000	97.993768
2788.000000	98.064803
2786.000000	98.146018
2784.000000	98.230407
2782.000000	98.309321
2780.000000	98.383323
2778.000000	98.451363
2776.000000	98.513360
2774.000000	98.573130
2772.000000	98.631694
2770.000000	98.683844
2768.000000	98.732368
2766.000000	98.781232
2764.000000	98.830136
2762.000000	98.874908
2760.000000	98.918620
2758.000000	98.962474
2756.000000	99.005505
2754.000000	99.046309
2752.000000	99.087527
2750.000000	99.126210
2748.000000	99.162382
2746.000000	99.198261
2744.000000	99.233615
2742.000000	99.267117
2740.000000	99.302532
2738.000000	99.337817
2736.000000	99.371410
2734.000000	99.404231
2732.000000	99.439347
2730.000000	99.474668
2728.000000	99.507985
2726.000000	99.537959
2724.000000	99.569556
2722.000000	99.603333
2720.000000	99.635780
2718.000000	99.667231
2716.000000	99.699355
2714.000000	99.726967
2712.000000	99.751126
2710.000000	99.773102
2708.000000	99.797468
2706.000000	99.823843
2704.000000	99.853753
2702.000000	99.890142
2700.000000	99.934778
2698.000000	99.981909
2696.000000	100.028546
2694.000000	100.072859
2692.000000	100.116420
2690.000000	100.158980
2688.000000	100.201325
2686.000000	100.240574
2684.000000	100.277957
2682.000000	100.313770
2680.000000	100.349561
2678.000000	100.384001
2676.000000	100.417321
2674.000000	100.446867
2672.000000	100.477197
2670.000000	100.508911
2668.000000	100.539640
2666.000000	100.567869
2664.000000	100.597150
2662.000000	100.625943
2660.000000	100.655595
2658.000000	100.686172
2656.000000	100.719723
2654.000000	100.755854
2652.000000	100.795683
2650.000000	100.836381
2648.000000	100.876420
2646.000000	100.914770
2644.000000	100.952368
2642.000000	100.988528
2640.000000	101.024223
2638.000000	101.058582
2636.000000	101.092573
2634.000000	101.125065
2632.000000	101.157992
2630.000000	101.188101
2628.000000	101.216966
2626.000000	101.242416
2624.000000	101.269145
2622.000000	101.299175
2620.000000	101.327944
2618.000000	101.354085
2616.000000	101.380271
2614.000000	101.404986
2612.000000	101.430931
2610.000000	101.453338
2608.000000	101.472857
2606.000000	101.491255
2604.000000	101.507064
2602.000000	101.517814
2600.000000	101.528059
2598.000000	101.537012
2596.000000	101.548029
2594.000000	101.563109
2592.000000	101.584827
2590.000000	101.616180
2588.000000	101.660092
2586.000000	101.711284
2584.000000	101.768108
2582.000000	101.829142
2580.000000	101.891666
2578.000000	101.950013
2576.000000	102.004029
2574.000000	102.052362
2572.000000	102.094622
2570.000000	102.132299
2568.000000	102.169734
2566.000000	102.205204
2564.000000	102.239814
2562.000000	102.271132
2560.000000	102.300502
2558.000000	102.328132
2556.000000	102.356017
2554.000000	102.381834
2552.000000	102.407499
2550.000000	102.433174
2548.000000	102.460523
2546.000000	102.485862
2544.000000	102.512366
2542.000000	102.538206
2540.000000	102.564130
2538.000000	102.591008
2536.000000	102.617985
2534.000000	102.642195
2532.000000	102.668410
2530.000000	102.695281
2528.000000	102.720991
2526.000000	102.744625
2524.000000	102.769146
2522.000000	102.793477
2520.000000	102.817534
2518.000000	102.839932
2516.000000	102.862951
2514.000000	102.885222
2512.000000	102.908761
2510.000000	102.930939
2508.000000	102.952633
2506.000000	102.973189
2504.000000	102.996202
2502.000000	103.017748
2500.000000	103.041014
2498.000000	103.065800
2496.000000	103.090634
2494.000000	103.113577
2492.000000	103.140041
2490.000000	103.166348
2488.000000	103.192656
2486.000000	103.218912
2484.000000	103.246048
2482.000000	103.271059
2480.000000	103.295879
2478.000000	103.318975
2476.000000	103.341594
2474.000000	103.362324
2472.000000	103.384012
2470.000000	103.403810
2468.000000	103.422118
2466.000000	103.437796
2464.000000	103.453960
2462.000000	103.469892
2460.000000	103.486268
2458.000000	103.500941
2456.000000	103.518213
2454.000000	103.537138
2452.000000	103.554165
2450.000000	103.568343
2448.000000	103.585206
2446.000000	103.601984
2444.000000	103.618407
2442.000000	103.633250
2440.000000	103.647525
2438.000000	103.660627
2436.000000	103.675969
2434.000000	103.691473
2432.000000	103.706212
2430.000000	103.715584
2428.000000	103.725315
2426.000000	103.737279
2424.000000	103.753284
2422.000000	103.769060
2420.000000	103.784799
2418.000000	103.797726
2416.000000	103.809721
2414.000000	103.821517
2412.000000	103.835688
2410.000000	103.846290
2408.000000	103.856212
2406.000000	103.869717
2404.000000	103.885475
2402.000000	103.899312
2400.000000	103.914373
2398.000000	103.928887
2396.000000	103.946532
2394.000000	103.966037
2392.000000	103.983827
2390.000000	103.998696
2388.000000	104.012191
2386.000000	104.016757
2384.000000	104.010494
2382.000000	103.982001
2380.000000	103.921740
2378.000000	103.821372
2376.000000	103.681607
2374.000000	103.501530
2372.000000	103.288502
2370.000000	103.061618
2368.000000	102.846885
2366.000000	102.667942
2364.000000	102.551022
2362.000000	102.511987
2360.000000	102.563229
2358.000000	102.703810
2356.000000	102.928191
2354.000000	103.218037
2352.000000	103.541461
2350.000000	103.775536
2348.000000	103.762569
2346.000000	103.553866
2344.000000	103.331807
2342.000000	103.168497
2340.000000	103.072444
2338.000000	103.031894
2336.000000	103.033585
2334.000000	103.065509
2332.000000	103.123688
2330.000000	103.204238
2328.000000	103.304023
2326.000000	103.410719
2324.000000	103.522153
2322.000000	103.631659
2320.000000	103.738767
2318.000000	103.837223
2316.000000	103.925221
2314.000000	104.000669
2312.000000	104.067679
2310.000000	104.123785
2308.000000	104.170309
2306.000000	104.207271
2304.000000	104.238393
2302.000000	104.263461
2300.000000	104.288593
2298.000000	104.308506
2296.000000	104.324919
2294.000000	104.340184
2292.000000	104.353741
2290.000000	104.362858
2288.000000	104.374708
2286.000000	104.383450
2284.000000	104.388888
2282.000000	104.386203
2280.000000	104.384093
2278.000000	104.380289
2276.000000	104.375565
2274.000000	104.370155
2272.000000	104.366279
2270.000000	104.361851
2268.000000	104.359188
2266.000000	104.354135
2264.000000	104.347208
2262.000000	104.340131
2260.000000	104.338375
2258.000000	104.338361
2256.000000	104.337790
2254.000000	104.337193
2252.000000	104.342552
2250.000000	104.347667
2248.000000	104.355299
2246.000000	104.365355
2244.000000	104.377578
2242.000000	104.387231
2240.000000	104.400270
2238.000000	104.413802
2236.000000	104.428259
2234.000000	104.440929
2232.000000	104.455025
2230.000000	104.467550
2228.000000	104.479948
2226.000000	104.489161
2224.000000	104.499109
2222.000000	104.507357
2220.000000	104.515391
2218.000000	104.521633
2216.000000	104.530559
2214.000000	104.534639
2212.000000	104.538713
2210.000000	104.543771
2208.000000	104.549360
2206.000000	104.552832
2204.000000	104.557856
2202.000000	104.561570
2200.000000	104.564429
2198.000000	104.567024
2196.000000	104.573520
2194.000000	104.575485
2192.000000	104.573717
2190.000000	104.572319
2188.000000	104.573355
2186.000000	104.572632
2184.000000	104.573700
2182.000000	104.572481
2180.000000	104.570957
2178.000000	104.569870
2176.000000	104.569126
2174.000000	104.558140
2172.000000	104.532757
2170.000000	104.506678
2168.000000	104.516897
2166.000000	104.540964
2164.000000	104.551191
2162.000000	104.550536
2160.000000	104.548263
2158.000000	104.543835
2156.000000	104.545826
2154.000000	104.544915
2152.000000	104.541254
2150.000000	104.538647
2148.000000	104.538750
2146.000000	104.538560
2144.000000	104.540106
2142.000000	104.536277
2140.000000	104.533159
2138.000000	104.529504
2136.000000	104.526333
2134.000000	104.523740
2132.000000	104.524235
2130.000000	104.523621
2128.000000	104.524281
2126.000000	104.522309
2124.000000	104.520562
2122.000000	104.521083
2120.000000	104.525635
2118.000000	104.528143
2116.000000	104.529500
2114.000000	104.533315
2112.000000	104.542598
2110.000000	104.555007
2108.000000	104.569169
2106.000000	104.580927
2104.000000	104.592811
2102.000000	104.603881
2100.000000	104.615769
2098.000000	104.625605
2096.000000	104.639416
2094.000000	104.652152
2092.000000	104.663997
2090.000000	104.672652
2088.000000	104.689913
2086.000000	104.706310
2084.000000	104.722889
2082.000000	104.736018
2080.000000	104.752488
2078.000000	104.766041
2076.000000	104.783486
2074.000000	104.798876
2072.000000	104.817160
2070.000000	104.833299
2068.000000	104.849473
2066.000000	104.860628
2064.000000	104.882547
2062.000000	104.909253
2060.000000	104.934503
2058.000000	104.956332
2056.000000	104.977623
2054.000000	104.996661
2052.000000	105.019986
2050.000000	105.039007
2048.000000	105.057930
2046.000000	105.075264
2044.000000	105.091064
2042.000000	105.102233
2040.000000	105.123142
2038.000000	105.140864
2036.000000	105.153728
2034.000000	105.161759
2032.000000	105.161759
2030.000000	105.143161
2028.000000	105.153153
2026.000000	105.188735
2024.000000	105.209580
2022.000000	105.217644
2020.000000	105.217956
2018.000000	105.211542
2016.000000	105.233843
2014.000000	105.270426
2012.000000	105.295718
2010.000000	105.308720
2008.000000	105.321659
2006.000000	105.335285
2004.000000	105.346992
2002.000000	105.350074
2000.000000	105.354581
1998.000000	105.360169
1996.000000	105.360973
1994.000000	105.328406
1992.000000	105.300361
1990.000000	105.322654
1988.000000	105.347160
1986.000000	105.351198
1984.000000	105.345763
1982.000000	105.335419
1980.000000	105.325146
1978.000000	105.310200
1976.000000	105.296663
1974.000000	105.279999
1972.000000	105.259446
1970.000000	105.222830
1968.000000	105.172119
1966.000000	105.153404
1964.000000	105.152414
1962.000000	105.095032
1960.000000	104.975436
1958.000000	104.946402
1956.000000	105.026489
1954.000000	105.053496
1952.000000	105.033648
1950.000000	104.999681
1948.000000	104.976067
1946.000000	104.934025
1944.000000	104.851210
1942.000000	104.813343
1940.000000	104.866916
1938.000000	104.880467
1936.000000	104.859484
1934.000000	104.828750
1932.000000	104.804053
1930.000000	104.775133
1928.000000	104.746067
1926.000000	104.690717
1924.000000	104.606340
1922.000000	104.553196
1920.000000	104.463211
1918.000000	104.351068
1916.000000	104.417634
1914.000000	104.459948
1912.000000	104.401665
1910.000000	104.317762
1908.000000	104.276513
1906.000000	104.242558
1904.000000	104.197980
1902.000000	104.144096
1900.000000	104.098790
1898.000000	104.037078
1896.000000	103.971518
1894.000000	103.937413
1892.000000	103.891003
1890.000000	103.798796
1888.000000	103.822477
1886.000000	103.865314
1884.000000	103.860575
1882.000000	103.842711
1880.000000	103.823878
1878.000000	103.795864
1876.000000	103.775559
1874.000000	103.740870
1872.000000	103.618864
1870.000000	103.379716
1868.000000	103.346608
1866.000000	103.500389
1864.000000	103.575215
1862.000000	103.552510
1860.000000	103.518042
1858.000000	103.486581
1856.000000	103.464451
1854.000000	103.426581
1852.000000	103.388012
1850.000000	103.317275
1848.000000	103.187574
1846.000000	102.849218
1844.000000	102.635900
1842.000000	102.899915
1840.000000	103.075104
1838.000000	103.024101
1836.000000	102.971656
1834.000000	102.901139
1832.000000	102.683327
1830.000000	102.463998
1828.000000	102.491807
1826.000000	102.447881
1824.000000	102.441401
1822.000000	102.512691
1820.000000	102.481907
1818.000000	102.397607
1816.000000	102.334097
1814.000000	102.241075
1812.000000	102.088390
1810.000000	101.984812
1808.000000	101.958754
1806.000000	101.890213
1804.000000	101.732346
1802.000000	101.496177
1800.000000	101.363246
1798.000000	101.343783
1796.000000	101.215871
1794.000000	100.783256
1792.000000	100.532673
1790.000000	100.749247
1788.000000	100.851808
1786.000000	100.666492
1784.000000	100.529397
1782.000000	100.429794
1780.000000	100.324823
1778.000000	100.261010
1776.000000	100.019510
1774.000000	99.418049
1772.000000	99.109994
1770.000000	99.360457
1768.000000	99.491098
1766.000000	99.616130
1764.000000	99.477243
1762.000000	99.182657
1760.000000	99.178284
1758.000000	99.088863
1756.000000	98.952545
1754.000000	98.756677
1752.000000	98.212820
1750.000000	98.000566
1748.000000	98.105790
1746.000000	98.109078
1744.000000	97.960517
1742.000000	97.667348
1740.000000	97.384737
1738.000000	97.327313
1736.000000	96.673954
1734.000000	96.014844
1732.000000	96.608727
1730.000000	97.171456
1728.000000	97.294938
1726.000000	97.272935
1724.000000	97.183639
1722.000000	97.037070
1720.000000	96.409975
1718.000000	95.549864
1716.000000	95.692748
1714.000000	96.293356
1712.000000	96.571765
1710.000000	96.501887
1708.000000	96.235128
1706.000000	95.918097
1704.000000	95.737071
1702.000000	94.931331
1700.000000	94.332199
1698.000000	94.531655
1696.000000	94.454300
1694.000000	95.182490
1692.000000	95.820450
1690.000000	95.758866
1688.000000	95.406888
1686.000000	94.313929
1684.000000	93.897640
1682.000000	94.851614
1680.000000	95.386444
1678.000000	95.240598
1676.000000	94.760617
1674.000000	94.736221
1672.000000	94.756520
1670.000000	94.446300
1668.000000	94.589574
1666.000000	94.814892
1664.000000	94.555129
1662.000000	94.408889
1660.000000	94.556270
1658.000000	94.456815
1656.000000	93.529917
1654.000000	91.831525
1652.000000	91.922533
1650.000000	93.210071
1648.000000	93.096400
1646.000000	92.822463
1644.000000	93.279940
1642.000000	93.529746
1640.000000	93.321731
1638.000000	92.666300
1636.000000	91.903090
1634.000000	92.170600
1632.000000	92.638094
1630.000000	92.459518
1628.000000	92.089729
1626.000000	91.703447
1624.000000	91.142982
1622.000000	90.777117
1620.000000	90.380506
1618.000000	89.422941
1616.000000	88.938387
1614.000000	89.058269
1612.000000	88.633202
1610.000000	88.008302
1608.000000	87.688859
1606.000000	87.722795
1604.000000	87.920869
1602.000000	88.168890
1600.000000	88.407511
1598.000000	88.611636
1596.000000	88.756013
1594.000000	88.870250
1592.000000	88.938483
1590.000000	88.943574
1588.000000	88.904745
1586.000000	88.838670
1584.000000	88.763640
1582.000000	88.709474
1580.000000	88.574349
1578.000000	87.914226
1576.000000	87.443389
1574.000000	88.030539
1572.000000	88.198375
1570.000000	87.823027
1568.000000	87.829420
1566.000000	87.837083
1564.000000	87.542304
1562.000000	86.576781
1560.000000	85.056139
1558.000000	85.050930
1556.000000	86.110938
1554.000000	86.730308
1552.000000	87.220927
1550.000000	87.519893
1548.000000	87.697984
1546.000000	87.621156
1544.000000	87.343071
1542.000000	86.810079
1540.000000	86.536878
1538.000000	87.532344
1536.000000	88.517033
1534.000000	88.570149
1532.000000	88.832180
1530.000000	89.089598
1528.000000	88.949724
1526.000000	88.717334
1524.000000	88.416268
1522.000000	87.857804
1520.000000	87.924115
1518.000000	88.165463
1516.000000	88.096284
1514.000000	88.030988
1512.000000	87.832704
1510.000000	87.361892
1508.000000	86.205876
1506.000000	85.534649
1504.000000	85.751073
1502.000000	84.922378
1500.000000	82.466384
1498.000000	79.177498
1496.000000	76.666431
1494.000000	76.283932
1492.000000	77.386992
1490.000000	79.145679
1488.000000	81.088151
1486.000000	82.675276
1484.000000	83.714672
1482.000000	84.227290
1480.000000	84.463948
1478.000000	84.395665
1476.000000	84.059582
1474.000000	83.545192
1472.000000	83.360912
1470.000000	83.591297
1468.000000	83.437628
1466.000000	82.852686
1464.000000	82.462155
1462.000000	82.188262
1460.000000	81.245094
1458.000000	79.614136
1456.000000	78.594138
1454.000000	78.271408
1452.000000	77.812164
1450.000000	77.888443
1448.000000	78.716682
1446.000000	79.695062
1444.000000	80.188230
1442.000000	80.306856
1440.000000	80.204792
1438.000000	79.816609
1436.000000	79.783898
1434.000000	80.244009
1432.000000	80.338853
1430.000000	80.268110
1428.000000	80.301905
1426.000000	80.308567
1424.000000	80.202919
1422.000000	79.965783
1420.000000	79.445057
1418.000000	79.381613
1416.000000	79.568090
1414.000000	79.456848
1412.000000	79.104883
1410.000000	78.577578
1408.000000	77.823130
1406.000000	76.997831
1404.000000	76.529502
1402.000000	76.547293
1400.000000	76.767861
1398.000000	77.196997
1396.000000	77.571041
1394.000000	77.891736
1392.000000	78.232692
1390.000000	78.238757
1388.000000	77.910374
1386.000000	77.636271
1384.000000	77.556274
1382.000000	77.666377
1380.000000	77.761097
1378.000000	77.702945
1376.000000	77.538246
1374.000000	77.399979
1372.000000	77.373822
1370.000000	77.285467
1368.000000	77.129455
1366.000000	76.966732
1364.000000	76.726604
1362.000000	76.539290
1360.000000	76.456258
1358.000000	76.332294
1356.000000	76.137576
1354.000000	75.930149
1352.000000	75.723903
1350.000000	75.509256
1348.000000	75.292547
1346.000000	75.065365
1344.000000	74.813755
1342.000000	74.534016
1340.000000	74.273299
1338.000000	74.136334
1336.000000	74.068136
1334.000000	73.977103
1332.000000	73.827627
1330.000000	73.638615
1328.000000	73.416117
1326.000000	73.172367
1324.000000	72.909072
1322.000000	72.624553
1320.000000	72.315215
1318.000000	72.014148
1316.000000	71.719376
1314.000000	71.410861
1312.000000	71.098326
1310.000000	70.786746
1308.000000	70.458352
1306.000000	70.126749
1304.000000	69.788223
1302.000000	69.446155
1300.000000	69.098471
1298.000000	68.751490
1296.000000	68.396372
1294.000000	68.033262
1292.000000	67.649775
1290.000000	67.253183
1288.000000	66.850809
1286.000000	66.452355
1284.000000	66.041904
1282.000000	65.611035
1280.000000	65.151044
1278.000000	64.664020
1276.000000	64.125437
1274.000000	63.509272
1272.000000	62.779602
1270.000000	61.894641
1268.000000	60.791621
1266.000000	59.475261
1264.000000	58.107596
1262.000000	57.012585
1260.000000	56.465578
1258.000000	56.472906
1256.000000	56.761747
1254.000000	57.002833
1252.000000	56.997958
1250.000000	56.752383
1248.000000	56.354266
1246.000000	55.884022
1244.000000	55.376481
1242.000000	54.859736
1240.000000	54.351531
1238.000000	53.861254
1236.000000	53.384331
1234.000000	52.923353
1232.000000	52.470498
1230.000000	52.023936
1228.000000	51.578072
1226.000000	51.129790
1224.000000	50.670438
1222.000000	50.200533
1220.000000	49.709271
1218.000000	49.196922
1216.000000	48.672999
1214.000000	48.159209
1212.000000	47.670375
1210.000000	47.219717
1208.000000	46.801208
1206.000000	46.404024
1204.000000	46.007300
1202.000000	45.609138
1200.000000	45.214281
1198.000000	44.828094
1196.000000	44.438959
1194.000000	44.034865
1192.000000	43.614767
1190.000000	43.185426
1188.000000	42.744381
1186.000000	42.275871
1184.000000	41.690120
1182.000000	40.960886
1180.000000	40.397896
1178.000000	40.151944
1176.000000	39.919241
1174.000000	39.562155
1172.000000	39.135601
1170.000000	38.687084
1168.000000	38.221322
1166.000000	37.747769
1164.000000	37.277065
1162.000000	36.816742
1160.000000	36.361590
1158.000000	35.924532
1156.000000	35.504296
1154.000000	35.086050
1152.000000	34.659315
1150.000000	34.236537
1148.000000	33.803396
1146.000000	33.363981
1144.000000	32.936221
1142.000000	32.558047
1140.000000	32.246241
1138.000000	31.935105
1136.000000	31.575973
1134.000000	31.181349
1132.000000	30.763795
1130.000000	30.337229
1128.000000	29.914278
1126.000000	29.495495
1124.000000	29.065148
1122.000000	28.626721
1120.000000	28.177378
1118.000000	27.719072
1116.000000	27.253051
1114.000000	26.786914
1112.000000	26.318558
1110.000000	25.856440
1108.000000	25.403869
1106.000000	24.967427
1104.000000	24.548019
1102.000000	24.139044
1100.000000	23.727172
1098.000000	23.319183
1096.000000	22.922498
1094.000000	22.539593
1092.000000	22.167893
1090.000000	21.814929
1088.000000	21.476725
1086.000000	21.143303
1084.000000	20.796720
1082.000000	20.438319
1080.000000	20.097390
1078.000000	19.793566
1076.000000	19.516339
1074.000000	19.281285
1072.000000	19.065686
1070.000000	18.842494
1068.000000	18.612247
1066.000000	18.381572
1064.000000	18.147422
1062.000000	17.911294
1060.000000	17.663849
1058.000000	17.379527
1056.000000	16.990429
1054.000000	16.478299
1052.000000	15.970363
1050.000000	15.669105
1048.000000	15.633897
1046.000000	15.716747
1044.000000	15.720177
1042.000000	15.601700
1040.000000	15.413791
1038.000000	15.201252
1036.000000	14.975471
1034.000000	14.737402
1032.000000	14.487011
1030.000000	14.227710
1028.000000	13.960046
1026.000000	13.692462
1024.000000	13.422593
1022.000000	13.155206
1020.000000	12.901258
1018.000000	12.668167
1016.000000	12.453517
1014.000000	12.262684
1012.000000	12.092772
1010.000000	11.932950
1008.000000	11.767189
1006.000000	11.588574
1004.000000	11.393297
1002.000000	11.183426
1000.000000	10.956691
