PE IR       SUBTECH     SPECTRUM    ASCII       PEDS        4.00        
   -1
TE109A_078_80K_after_150K_BG.ASC
20/04/21
21:08:29.00
20/04/21
21:08:29.00
Administrator
TE109A, Tuesday, April 21 2020, 078.
1000.000000
#HDR
-1
-1
#GR
cm-1
EGY
1.0
0.0
6000.000000
-2.000000
2501
8
105.546073
10.967363
#DATA
6000.000000	16.555001
5998.000000	16.586075
5996.000000	16.619453
5994.000000	16.653203
5992.000000	16.687267
5990.000000	16.721405
5988.000000	16.755313
5986.000000	16.788166
5984.000000	16.819355
5982.000000	16.851222
5980.000000	16.884937
5978.000000	16.919690
5976.000000	16.953976
5974.000000	16.987599
5972.000000	17.021332
5970.000000	17.055928
5968.000000	17.090378
5966.000000	17.125136
5964.000000	17.158746
5962.000000	17.191679
5960.000000	17.225418
5958.000000	17.258437
5956.000000	17.292708
5954.000000	17.328111
5952.000000	17.363996
5950.000000	17.399550
5948.000000	17.433559
5946.000000	17.467763
5944.000000	17.501651
5942.000000	17.535446
5940.000000	17.567497
5938.000000	17.599455
5936.000000	17.632345
5934.000000	17.666522
5932.000000	17.702258
5930.000000	17.737876
5928.000000	17.772519
5926.000000	17.806975
5924.000000	17.840926
5922.000000	17.875646
5920.000000	17.911251
5918.000000	17.947952
5916.000000	17.984730
5914.000000	18.020433
5912.000000	18.056583
5910.000000	18.094008
5908.000000	18.132033
5906.000000	18.169826
5904.000000	18.206246
5902.000000	18.241925
5900.000000	18.277678
5898.000000	18.314244
5896.000000	18.351946
5894.000000	18.389745
5892.000000	18.426087
5890.000000	18.461914
5888.000000	18.497493
5886.000000	18.533492
5884.000000	18.569522
5882.000000	18.605796
5880.000000	18.642244
5878.000000	18.677203
5876.000000	18.712536
5874.000000	18.748636
5872.000000	18.786093
5870.000000	18.823951
5868.000000	18.860532
5866.000000	18.898468
5864.000000	18.936270
5862.000000	18.973535
5860.000000	19.009981
5858.000000	19.046177
5856.000000	19.084614
5854.000000	19.125251
5852.000000	19.165723
5850.000000	19.204975
5848.000000	19.242447
5846.000000	19.281279
5844.000000	19.321289
5842.000000	19.361327
5840.000000	19.401445
5838.000000	19.442783
5836.000000	19.485108
5834.000000	19.527490
5832.000000	19.568870
5830.000000	19.609443
5828.000000	19.651986
5826.000000	19.694211
5824.000000	19.735453
5822.000000	19.774854
5820.000000	19.815641
5818.000000	19.858050
5816.000000	19.899634
5814.000000	19.941005
5812.000000	19.982010
5810.000000	20.022070
5808.000000	20.060143
5806.000000	20.099297
5804.000000	20.142256
5802.000000	20.186768
5800.000000	20.228884
5798.000000	20.268818
5796.000000	20.307911
5794.000000	20.349619
5792.000000	20.391178
5790.000000	20.431854
5788.000000	20.472387
5786.000000	20.513205
5784.000000	20.555474
5782.000000	20.598084
5780.000000	20.639853
5778.000000	20.682385
5776.000000	20.723765
5774.000000	20.764720
5772.000000	20.806734
5770.000000	20.849604
5768.000000	20.893206
5766.000000	20.935535
5764.000000	20.975742
5762.000000	21.016689
5760.000000	21.058703
5758.000000	21.102155
5756.000000	21.145466
5754.000000	21.189032
5752.000000	21.230583
5750.000000	21.270846
5748.000000	21.310594
5746.000000	21.352459
5744.000000	21.396103
5742.000000	21.438890
5740.000000	21.479473
5738.000000	21.519333
5736.000000	21.559098
5734.000000	21.598950
5732.000000	21.638755
5730.000000	21.679722
5728.000000	21.722164
5726.000000	21.763771
5724.000000	21.803779
5722.000000	21.844225
5720.000000	21.886557
5718.000000	21.931660
5716.000000	21.975515
5714.000000	22.019866
5712.000000	22.062927
5710.000000	22.106254
5708.000000	22.149998
5706.000000	22.193968
5704.000000	22.237224
5702.000000	22.280200
5700.000000	22.324131
5698.000000	22.369741
5696.000000	22.416038
5694.000000	22.462617
5692.000000	22.509189
5690.000000	22.555028
5688.000000	22.600480
5686.000000	22.646889
5684.000000	22.692134
5682.000000	22.736478
5680.000000	22.780199
5678.000000	22.825827
5676.000000	22.872538
5674.000000	22.919324
5672.000000	22.965426
5670.000000	23.010895
5668.000000	23.055134
5666.000000	23.100200
5664.000000	23.145553
5662.000000	23.191974
5660.000000	23.237115
5658.000000	23.282683
5656.000000	23.329518
5654.000000	23.376481
5652.000000	23.422632
5650.000000	23.467292
5648.000000	23.512336
5646.000000	23.557084
5644.000000	23.600556
5642.000000	23.644904
5640.000000	23.691013
5638.000000	23.738649
5636.000000	23.785891
5634.000000	23.831583
5632.000000	23.875969
5630.000000	23.920931
5628.000000	23.966832
5626.000000	24.014492
5624.000000	24.061327
5622.000000	24.106624
5620.000000	24.150830
5618.000000	24.196137
5616.000000	24.241645
5614.000000	24.288574
5612.000000	24.336064
5610.000000	24.383014
5608.000000	24.428280
5606.000000	24.472751
5604.000000	24.516626
5602.000000	24.561382
5600.000000	24.606538
5598.000000	24.653500
5596.000000	24.700443
5594.000000	24.746609
5592.000000	24.794146
5590.000000	24.842148
5588.000000	24.889330
5586.000000	24.935365
5584.000000	24.981468
5582.000000	25.029197
5580.000000	25.076610
5578.000000	25.124044
5576.000000	25.171223
5574.000000	25.219452
5572.000000	25.267461
5570.000000	25.315696
5568.000000	25.363811
5566.000000	25.412392
5564.000000	25.461275
5562.000000	25.510718
5560.000000	25.559536
5558.000000	25.606966
5556.000000	25.652570
5554.000000	25.698018
5552.000000	25.744608
5550.000000	25.792351
5548.000000	25.841289
5546.000000	25.889441
5544.000000	25.935938
5542.000000	25.982958
5540.000000	26.030771
5538.000000	26.079806
5536.000000	26.128256
5534.000000	26.175995
5532.000000	26.223203
5530.000000	26.269783
5528.000000	26.317997
5526.000000	26.367319
5524.000000	26.415130
5522.000000	26.460947
5520.000000	26.506672
5518.000000	26.553819
5516.000000	26.603164
5514.000000	26.653855
5512.000000	26.702987
5510.000000	26.748469
5508.000000	26.792097
5506.000000	26.839738
5504.000000	26.890225
5502.000000	26.940996
5500.000000	26.990101
5498.000000	27.037567
5496.000000	27.081917
5494.000000	27.126768
5492.000000	27.173874
5490.000000	27.224759
5488.000000	27.277105
5486.000000	27.330442
5484.000000	27.383715
5482.000000	27.433387
5480.000000	27.478888
5478.000000	27.519164
5476.000000	27.561776
5474.000000	27.611988
5472.000000	27.667326
5470.000000	27.720386
5468.000000	27.768793
5466.000000	27.816290
5464.000000	27.861948
5462.000000	27.909603
5460.000000	27.961291
5458.000000	28.016444
5456.000000	28.070573
5454.000000	28.120964
5452.000000	28.168318
5450.000000	28.211311
5448.000000	28.252083
5446.000000	28.296471
5444.000000	28.344771
5442.000000	28.398788
5440.000000	28.452021
5438.000000	28.501234
5436.000000	28.549420
5434.000000	28.598908
5432.000000	28.646145
5430.000000	28.692725
5428.000000	28.743764
5426.000000	28.802545
5424.000000	28.859089
5422.000000	28.910429
5420.000000	28.959489
5418.000000	29.002899
5416.000000	29.039631
5414.000000	29.077421
5412.000000	29.124575
5410.000000	29.182291
5408.000000	29.242771
5406.000000	29.300846
5404.000000	29.353593
5402.000000	29.402292
5400.000000	29.447928
5398.000000	29.491657
5396.000000	29.535613
5394.000000	29.586425
5392.000000	29.643456
5390.000000	29.699020
5388.000000	29.747441
5386.000000	29.794936
5384.000000	29.846581
5382.000000	29.900339
5380.000000	29.947731
5378.000000	29.991911
5376.000000	30.041151
5374.000000	30.099574
5372.000000	30.160375
5370.000000	30.216972
5368.000000	30.267096
5366.000000	30.314587
5364.000000	30.364013
5362.000000	30.416990
5360.000000	30.471030
5358.000000	30.519023
5356.000000	30.559672
5354.000000	30.602785
5352.000000	30.653289
5350.000000	30.707621
5348.000000	30.752461
5346.000000	30.794584
5344.000000	30.843856
5342.000000	30.896150
5340.000000	30.945746
5338.000000	30.998061
5336.000000	31.056484
5334.000000	31.115803
5332.000000	31.167811
5330.000000	31.215553
5328.000000	31.264245
5326.000000	31.317863
5324.000000	31.376881
5322.000000	31.433501
5320.000000	31.484320
5318.000000	31.531897
5316.000000	31.580681
5314.000000	31.632762
5312.000000	31.684055
5310.000000	31.732109
5308.000000	31.779329
5306.000000	31.830360
5304.000000	31.884173
5302.000000	31.937891
5300.000000	31.989938
5298.000000	32.041465
5296.000000	32.093103
5294.000000	32.141736
5292.000000	32.187346
5290.000000	32.235709
5288.000000	32.290491
5286.000000	32.348218
5284.000000	32.403304
5282.000000	32.456990
5280.000000	32.510725
5278.000000	32.564212
5276.000000	32.617161
5274.000000	32.669821
5272.000000	32.722246
5270.000000	32.773300
5268.000000	32.818850
5266.000000	32.860976
5264.000000	32.908038
5262.000000	32.965311
5260.000000	33.026125
5258.000000	33.079022
5256.000000	33.127075
5254.000000	33.178685
5252.000000	33.230663
5250.000000	33.277626
5248.000000	33.322485
5246.000000	33.376542
5244.000000	33.437665
5242.000000	33.498547
5240.000000	33.555552
5238.000000	33.607875
5236.000000	33.656268
5234.000000	33.704099
5232.000000	33.756084
5230.000000	33.808526
5228.000000	33.856223
5226.000000	33.903842
5224.000000	33.958125
5222.000000	34.016497
5220.000000	34.071994
5218.000000	34.124922
5216.000000	34.179082
5214.000000	34.233070
5212.000000	34.281234
5210.000000	34.322787
5208.000000	34.366402
5206.000000	34.422267
5204.000000	34.485792
5202.000000	34.546796
5200.000000	34.599935
5198.000000	34.653314
5196.000000	34.709935
5194.000000	34.767372
5192.000000	34.820977
5190.000000	34.872446
5188.000000	34.922910
5186.000000	34.975388
5184.000000	35.031118
5182.000000	35.090034
5180.000000	35.147555
5178.000000	35.202542
5176.000000	35.255609
5174.000000	35.308088
5172.000000	35.361429
5170.000000	35.416721
5168.000000	35.471673
5166.000000	35.525317
5164.000000	35.579032
5162.000000	35.633192
5160.000000	35.688055
5158.000000	35.742279
5156.000000	35.797268
5154.000000	35.853357
5152.000000	35.910185
5150.000000	35.966190
5148.000000	36.020011
5146.000000	36.074167
5144.000000	36.127736
5142.000000	36.181431
5140.000000	36.234952
5138.000000	36.288865
5136.000000	36.342746
5134.000000	36.398049
5132.000000	36.453691
5130.000000	36.507699
5128.000000	36.561506
5126.000000	36.616804
5124.000000	36.671898
5122.000000	36.724100
5120.000000	36.776912
5118.000000	36.831390
5116.000000	36.885163
5114.000000	36.939100
5112.000000	36.993981
5110.000000	37.049294
5108.000000	37.103460
5106.000000	37.158530
5104.000000	37.214301
5102.000000	37.270455
5100.000000	37.327182
5098.000000	37.383874
5096.000000	37.439969
5094.000000	37.496345
5092.000000	37.552422
5090.000000	37.608754
5088.000000	37.665346
5086.000000	37.722001
5084.000000	37.778498
5082.000000	37.835402
5080.000000	37.892633
5078.000000	37.949172
5076.000000	38.005960
5074.000000	38.063171
5072.000000	38.119928
5070.000000	38.176586
5068.000000	38.232617
5066.000000	38.289901
5064.000000	38.347486
5062.000000	38.404174
5060.000000	38.459072
5058.000000	38.514426
5056.000000	38.571477
5054.000000	38.629433
5052.000000	38.686135
5050.000000	38.741117
5048.000000	38.795145
5046.000000	38.851236
5044.000000	38.908701
5042.000000	38.965948
5040.000000	39.022116
5038.000000	39.078332
5036.000000	39.134414
5034.000000	39.190432
5032.000000	39.247137
5030.000000	39.304715
5028.000000	39.360475
5026.000000	39.415420
5024.000000	39.470048
5022.000000	39.526535
5020.000000	39.582311
5018.000000	39.638338
5016.000000	39.694641
5014.000000	39.752533
5012.000000	39.809056
5010.000000	39.864121
5008.000000	39.920162
5006.000000	39.979032
5004.000000	40.038853
5002.000000	40.098597
5000.000000	40.156249
4998.000000	40.213138
4996.000000	40.269448
4994.000000	40.326579
4992.000000	40.384485
4990.000000	40.443667
4988.000000	40.502730
4986.000000	40.560386
4984.000000	40.616958
4982.000000	40.674436
4980.000000	40.733097
4978.000000	40.793292
4976.000000	40.851936
4974.000000	40.909160
4972.000000	40.966523
4970.000000	41.026808
4968.000000	41.086009
4966.000000	41.142170
4964.000000	41.196884
4962.000000	41.253843
4960.000000	41.312784
4958.000000	41.372141
4956.000000	41.429432
4954.000000	41.486579
4952.000000	41.543390
4950.000000	41.599770
4948.000000	41.655106
4946.000000	41.711568
4944.000000	41.768312
4942.000000	41.825879
4940.000000	41.884119
4938.000000	41.941890
4936.000000	41.998710
4934.000000	42.055291
4932.000000	42.111878
4930.000000	42.169155
4928.000000	42.225192
4926.000000	42.280384
4924.000000	42.337164
4922.000000	42.396420
4920.000000	42.454577
4918.000000	42.511728
4916.000000	42.568897
4914.000000	42.627101
4912.000000	42.685915
4910.000000	42.745069
4908.000000	42.803288
4906.000000	42.861480
4904.000000	42.919635
4902.000000	42.978034
4900.000000	43.036657
4898.000000	43.096214
4896.000000	43.155766
4894.000000	43.214850
4892.000000	43.272899
4890.000000	43.330533
4888.000000	43.388928
4886.000000	43.449111
4884.000000	43.509580
4882.000000	43.569389
4880.000000	43.629730
4878.000000	43.691382
4876.000000	43.751708
4874.000000	43.809353
4872.000000	43.866335
4870.000000	43.925264
4868.000000	43.984939
4866.000000	44.043553
4864.000000	44.100628
4862.000000	44.158452
4860.000000	44.217104
4858.000000	44.275847
4856.000000	44.333059
4854.000000	44.390370
4852.000000	44.449553
4850.000000	44.509344
4848.000000	44.567043
4846.000000	44.623992
4844.000000	44.681922
4842.000000	44.740239
4840.000000	44.797654
4838.000000	44.853831
4836.000000	44.909290
4834.000000	44.967985
4832.000000	45.028680
4830.000000	45.087620
4828.000000	45.143742
4826.000000	45.200206
4824.000000	45.256981
4822.000000	45.315143
4820.000000	45.374717
4818.000000	45.435419
4816.000000	45.494982
4814.000000	45.553051
4812.000000	45.609571
4810.000000	45.667758
4808.000000	45.728299
4806.000000	45.790066
4804.000000	45.851186
4802.000000	45.912495
4800.000000	45.972544
4798.000000	46.032388
4796.000000	46.093728
4794.000000	46.155084
4792.000000	46.214207
4790.000000	46.273034
4788.000000	46.333011
4786.000000	46.394236
4784.000000	46.454780
4782.000000	46.515015
4780.000000	46.575216
4778.000000	46.636136
4776.000000	46.695804
4774.000000	46.756050
4772.000000	46.816695
4770.000000	46.876812
4768.000000	46.936224
4766.000000	46.995463
4764.000000	47.053839
4762.000000	47.112240
4760.000000	47.171745
4758.000000	47.231394
4756.000000	47.288987
4754.000000	47.346538
4752.000000	47.405749
4750.000000	47.465964
4748.000000	47.524109
4746.000000	47.581685
4744.000000	47.639107
4742.000000	47.697479
4740.000000	47.755861
4738.000000	47.814728
4736.000000	47.873642
4734.000000	47.933434
4732.000000	47.993110
4730.000000	48.052147
4728.000000	48.109384
4726.000000	48.166805
4724.000000	48.225885
4722.000000	48.286502
4720.000000	48.346725
4718.000000	48.407899
4716.000000	48.469177
4714.000000	48.530622
4712.000000	48.591452
4710.000000	48.652697
4708.000000	48.714869
4706.000000	48.778814
4704.000000	48.842868
4702.000000	48.905748
4700.000000	48.967492
4698.000000	49.030326
4696.000000	49.093628
4694.000000	49.155382
4692.000000	49.215272
4690.000000	49.276006
4688.000000	49.336928
4686.000000	49.398181
4684.000000	49.459784
4682.000000	49.522104
4680.000000	49.583713
4678.000000	49.646739
4676.000000	49.709892
4674.000000	49.771653
4672.000000	49.830808
4670.000000	49.891362
4668.000000	49.953844
4666.000000	50.016529
4664.000000	50.076924
4662.000000	50.137291
4660.000000	50.197363
4658.000000	50.257226
4656.000000	50.317891
4654.000000	50.380718
4652.000000	50.442865
4650.000000	50.503610
4648.000000	50.564170
4646.000000	50.625957
4644.000000	50.687723
4642.000000	50.749315
4640.000000	50.810600
4638.000000	50.871154
4636.000000	50.930723
4634.000000	50.990376
4632.000000	51.050217
4630.000000	51.111015
4628.000000	51.173152
4626.000000	51.234966
4624.000000	51.295659
4622.000000	51.357802
4620.000000	51.421640
4618.000000	51.485611
4616.000000	51.549546
4614.000000	51.614173
4612.000000	51.677955
4610.000000	51.740746
4608.000000	51.803228
4606.000000	51.867518
4604.000000	51.932909
4602.000000	51.999275
4600.000000	52.064811
4598.000000	52.129492
4596.000000	52.193661
4594.000000	52.259688
4592.000000	52.325493
4590.000000	52.389999
4588.000000	52.453109
4586.000000	52.517009
4584.000000	52.581395
4582.000000	52.645970
4580.000000	52.709711
4578.000000	52.774089
4576.000000	52.837814
4574.000000	52.901532
4572.000000	52.964973
4570.000000	53.028969
4568.000000	53.093325
4566.000000	53.158238
4564.000000	53.221162
4562.000000	53.283310
4560.000000	53.346184
4558.000000	53.410073
4556.000000	53.472373
4554.000000	53.533626
4552.000000	53.595244
4550.000000	53.658877
4548.000000	53.722851
4546.000000	53.786132
4544.000000	53.847212
4542.000000	53.908483
4540.000000	53.972096
4538.000000	54.037038
4536.000000	54.099028
4534.000000	54.159907
4532.000000	54.224091
4530.000000	54.290721
4528.000000	54.355708
4526.000000	54.418781
4524.000000	54.480484
4522.000000	54.542374
4520.000000	54.606241
4518.000000	54.671902
4516.000000	54.737571
4514.000000	54.803774
4512.000000	54.870689
4510.000000	54.936455
4508.000000	55.000108
4506.000000	55.063820
4504.000000	55.127648
4502.000000	55.191860
4500.000000	55.256877
4498.000000	55.322867
4496.000000	55.389523
4494.000000	55.456326
4492.000000	55.521547
4490.000000	55.587163
4488.000000	55.653052
4486.000000	55.718182
4484.000000	55.782475
4482.000000	55.846548
4480.000000	55.910193
4478.000000	55.974701
4476.000000	56.038809
4474.000000	56.102448
4472.000000	56.165758
4470.000000	56.229260
4468.000000	56.291929
4466.000000	56.354231
4464.000000	56.416404
4462.000000	56.480047
4460.000000	56.543386
4458.000000	56.605262
4456.000000	56.665112
4454.000000	56.725747
4452.000000	56.788673
4450.000000	56.852976
4448.000000	56.916709
4446.000000	56.980387
4444.000000	57.042615
4442.000000	57.104656
4440.000000	57.167287
4438.000000	57.229859
4436.000000	57.292359
4434.000000	57.355870
4432.000000	57.418262
4430.000000	57.480405
4428.000000	57.542864
4426.000000	57.606846
4424.000000	57.671763
4422.000000	57.736005
4420.000000	57.798017
4418.000000	57.860083
4416.000000	57.923491
4414.000000	57.988140
4412.000000	58.053094
4410.000000	58.118812
4408.000000	58.185126
4406.000000	58.251353
4404.000000	58.316324
4402.000000	58.380956
4400.000000	58.445098
4398.000000	58.508017
4396.000000	58.570901
4394.000000	58.636190
4392.000000	58.700640
4390.000000	58.762180
4388.000000	58.823617
4386.000000	58.886119
4384.000000	58.947307
4382.000000	59.008624
4380.000000	59.070421
4378.000000	59.131378
4376.000000	59.190282
4374.000000	59.248134
4372.000000	59.306750
4370.000000	59.367042
4368.000000	59.427002
4366.000000	59.488481
4364.000000	59.551222
4362.000000	59.612087
4360.000000	59.671669
4358.000000	59.734627
4356.000000	59.799330
4354.000000	59.862235
4352.000000	59.922368
4350.000000	59.983560
4348.000000	60.047175
4346.000000	60.111435
4344.000000	60.175153
4342.000000	60.240345
4340.000000	60.305574
4338.000000	60.369759
4336.000000	60.432293
4334.000000	60.494534
4332.000000	60.558091
4330.000000	60.623937
4328.000000	60.690319
4326.000000	60.755521
4324.000000	60.819278
4322.000000	60.884725
4320.000000	60.951842
4318.000000	61.020465
4316.000000	61.090835
4314.000000	61.160477
4312.000000	61.226752
4310.000000	61.292545
4308.000000	61.358766
4306.000000	61.425619
4304.000000	61.492471
4302.000000	61.559438
4300.000000	61.626520
4298.000000	61.693783
4296.000000	61.759341
4294.000000	61.822884
4292.000000	61.883996
4290.000000	61.944834
4288.000000	62.007912
4286.000000	62.072987
4284.000000	62.136727
4282.000000	62.197972
4280.000000	62.257544
4278.000000	62.317830
4276.000000	62.378715
4274.000000	62.438334
4272.000000	62.496690
4270.000000	62.555588
4268.000000	62.614154
4266.000000	62.673130
4264.000000	62.733902
4262.000000	62.796441
4260.000000	62.858624
4258.000000	62.921222
4256.000000	62.985821
4254.000000	63.051383
4252.000000	63.113858
4250.000000	63.175819
4248.000000	63.240035
4246.000000	63.304704
4244.000000	63.367412
4242.000000	63.431262
4240.000000	63.496469
4238.000000	63.562023
4236.000000	63.627335
4234.000000	63.692916
4232.000000	63.757949
4230.000000	63.823005
4228.000000	63.887668
4226.000000	63.952015
4224.000000	64.015502
4222.000000	64.078788
4220.000000	64.142365
4218.000000	64.207004
4216.000000	64.271312
4214.000000	64.335783
4212.000000	64.401091
4210.000000	64.467680
4208.000000	64.534928
4206.000000	64.603086
4204.000000	64.671197
4202.000000	64.738453
4200.000000	64.805070
4198.000000	64.873389
4196.000000	64.942174
4194.000000	65.011749
4192.000000	65.081783
4190.000000	65.150618
4188.000000	65.217990
4186.000000	65.285885
4184.000000	65.352276
4182.000000	65.417073
4180.000000	65.482485
4178.000000	65.549029
4176.000000	65.614032
4174.000000	65.678391
4172.000000	65.742496
4170.000000	65.806491
4168.000000	65.870481
4166.000000	65.935026
4164.000000	65.998682
4162.000000	66.062840
4160.000000	66.127729
4158.000000	66.192379
4156.000000	66.257212
4154.000000	66.323463
4152.000000	66.388180
4150.000000	66.452344
4148.000000	66.517663
4146.000000	66.582624
4144.000000	66.646568
4142.000000	66.712760
4140.000000	66.780867
4138.000000	66.848170
4136.000000	66.912539
4134.000000	66.976482
4132.000000	67.042264
4130.000000	67.110133
4128.000000	67.177092
4126.000000	67.242028
4124.000000	67.306693
4122.000000	67.372965
4120.000000	67.439020
4118.000000	67.505025
4116.000000	67.571488
4114.000000	67.638023
4112.000000	67.704166
4110.000000	67.770343
4108.000000	67.834800
4106.000000	67.897246
4104.000000	67.960266
4102.000000	68.026479
4100.000000	68.092211
4098.000000	68.156682
4096.000000	68.221408
4094.000000	68.286534
4092.000000	68.351577
4090.000000	68.417387
4088.000000	68.485351
4086.000000	68.556712
4084.000000	68.627198
4082.000000	68.695455
4080.000000	68.763109
4078.000000	68.831147
4076.000000	68.897676
4074.000000	68.962691
4072.000000	69.028270
4070.000000	69.095043
4068.000000	69.159773
4066.000000	69.224149
4064.000000	69.289367
4062.000000	69.354755
4060.000000	69.420351
4058.000000	69.486166
4056.000000	69.551013
4054.000000	69.616100
4052.000000	69.681228
4050.000000	69.745011
4048.000000	69.806473
4046.000000	69.868508
4044.000000	69.934592
4042.000000	70.003691
4040.000000	70.071583
4038.000000	70.138940
4036.000000	70.206438
4034.000000	70.274480
4032.000000	70.342891
4030.000000	70.409861
4028.000000	70.474795
4026.000000	70.540974
4024.000000	70.609467
4022.000000	70.678621
4020.000000	70.747018
4018.000000	70.815921
4016.000000	70.885026
4014.000000	70.954695
4012.000000	71.024013
4010.000000	71.090445
4008.000000	71.155666
4006.000000	71.225599
4004.000000	71.298737
4002.000000	71.369349
4000.000000	71.435319
3998.000000	71.499617
3996.000000	71.563373
3994.000000	71.627200
3992.000000	71.690309
3990.000000	71.754537
3988.000000	71.820035
3986.000000	71.884265
3984.000000	71.947790
3982.000000	72.012958
3980.000000	72.077572
3978.000000	72.138760
3976.000000	72.196938
3974.000000	72.258365
3972.000000	72.323114
3970.000000	72.388576
3968.000000	72.454739
3966.000000	72.517111
3964.000000	72.570719
3962.000000	72.626572
3960.000000	72.690689
3958.000000	72.755742
3956.000000	72.817795
3954.000000	72.874447
3952.000000	72.919370
3950.000000	72.963121
3948.000000	73.024363
3946.000000	73.089426
3944.000000	73.142580
3942.000000	73.213334
3940.000000	73.303841
3938.000000	73.380897
3936.000000	73.427172
3934.000000	73.452453
3932.000000	73.500420
3930.000000	73.589093
3928.000000	73.670112
3926.000000	73.724462
3924.000000	73.785097
3922.000000	73.844414
3920.000000	73.873310
3918.000000	73.914924
3916.000000	74.022125
3914.000000	74.156137
3912.000000	74.256712
3910.000000	74.315949
3908.000000	74.305665
3906.000000	74.211540
3904.000000	74.134796
3902.000000	74.170816
3900.000000	74.316091
3898.000000	74.526422
3896.000000	74.686880
3894.000000	74.698835
3892.000000	74.678077
3890.000000	74.747495
3888.000000	74.772273
3886.000000	74.762518
3884.000000	74.864520
3882.000000	74.978149
3880.000000	75.078520
3878.000000	75.203177
3876.000000	75.254065
3874.000000	75.214034
3872.000000	75.107241
3870.000000	75.085759
3868.000000	75.230513
3866.000000	75.353008
3864.000000	75.446357
3862.000000	75.603279
3860.000000	75.738518
3858.000000	75.621650
3856.000000	75.126477
3854.000000	74.788887
3852.000000	75.141704
3850.000000	75.780509
3848.000000	76.144610
3846.000000	76.219788
3844.000000	76.191406
3842.000000	76.107302
3840.000000	75.922922
3838.000000	75.848789
3836.000000	76.067153
3834.000000	76.346224
3832.000000	76.525150
3830.000000	76.666148
3828.000000	76.765657
3826.000000	76.804932
3824.000000	76.718473
3822.000000	76.601548
3820.000000	76.633543
3818.000000	76.647842
3816.000000	76.708929
3814.000000	77.025403
3812.000000	77.307361
3810.000000	77.297900
3808.000000	77.170699
3806.000000	77.182068
3804.000000	77.160811
3802.000000	77.082506
3800.000000	77.264364
3798.000000	77.551205
3796.000000	77.732511
3794.000000	77.882393
3792.000000	77.997005
3790.000000	78.063586
3788.000000	78.104108
3786.000000	78.138691
3784.000000	78.182689
3782.000000	78.203916
3780.000000	78.222207
3778.000000	78.316279
3776.000000	78.439202
3774.000000	78.486946
3772.000000	78.439523
3770.000000	78.414942
3768.000000	78.487829
3766.000000	78.596364
3764.000000	78.697313
3762.000000	78.731503
3760.000000	78.723861
3758.000000	78.773754
3756.000000	78.751950
3754.000000	78.471031
3752.000000	78.159553
3750.000000	78.193278
3748.000000	78.354195
3746.000000	78.264012
3744.000000	78.375861
3742.000000	78.893402
3740.000000	79.182093
3738.000000	79.079376
3736.000000	78.977130
3734.000000	79.060917
3732.000000	79.283461
3730.000000	79.542172
3728.000000	79.673603
3726.000000	79.717920
3724.000000	79.786175
3722.000000	79.878835
3720.000000	79.990165
3718.000000	80.089274
3716.000000	80.082068
3714.000000	79.915388
3712.000000	79.811299
3710.000000	79.967859
3708.000000	80.237231
3706.000000	80.409150
3704.000000	80.435503
3702.000000	80.446540
3700.000000	80.549288
3698.000000	80.664685
3696.000000	80.716678
3694.000000	80.671537
3692.000000	80.475836
3690.000000	80.247076
3688.000000	80.331001
3686.000000	80.708740
3684.000000	80.973207
3682.000000	81.018640
3680.000000	80.910551
3678.000000	80.618387
3676.000000	80.409864
3674.000000	80.516728
3672.000000	80.604161
3670.000000	80.692913
3668.000000	81.006997
3666.000000	81.300670
3664.000000	81.421212
3662.000000	81.455054
3660.000000	81.418405
3658.000000	81.298342
3656.000000	81.262253
3654.000000	81.288122
3652.000000	81.098472
3650.000000	80.871345
3648.000000	80.989819
3646.000000	81.335547
3644.000000	81.582410
3642.000000	81.676424
3640.000000	81.711392
3638.000000	81.724682
3636.000000	81.712037
3634.000000	81.658024
3632.000000	81.452111
3630.000000	81.181576
3628.000000	81.254403
3626.000000	81.589867
3624.000000	81.759881
3622.000000	81.679891
3620.000000	81.554503
3618.000000	81.581915
3616.000000	81.663601
3614.000000	81.660172
3612.000000	81.613275
3610.000000	81.579565
3608.000000	81.641401
3606.000000	81.782476
3604.000000	81.862918
3602.000000	81.858788
3600.000000	81.839668
3598.000000	81.822650
3596.000000	81.802778
3594.000000	81.811360
3592.000000	81.802880
3590.000000	81.698368
3588.000000	81.612890
3586.000000	81.682716
3584.000000	81.806979
3582.000000	81.862190
3580.000000	81.865057
3578.000000	81.860198
3576.000000	81.858107
3574.000000	81.855295
3572.000000	81.821068
3570.000000	81.710698
3568.000000	81.598967
3566.000000	81.620887
3564.000000	81.719337
3562.000000	81.774926
3560.000000	81.791117
3558.000000	81.800276
3556.000000	81.793247
3554.000000	81.764609
3552.000000	81.744968
3550.000000	81.733137
3548.000000	81.694346
3546.000000	81.661383
3544.000000	81.675163
3542.000000	81.703920
3540.000000	81.706777
3538.000000	81.683896
3536.000000	81.663227
3534.000000	81.652401
3532.000000	81.624557
3530.000000	81.574839
3528.000000	81.525673
3526.000000	81.484106
3524.000000	81.446563
3522.000000	81.423485
3520.000000	81.404530
3518.000000	81.376729
3516.000000	81.345200
3514.000000	81.306944
3512.000000	81.254947
3510.000000	81.201316
3508.000000	81.159580
3506.000000	81.106278
3504.000000	81.036628
3502.000000	80.986955
3500.000000	80.952184
3498.000000	80.902576
3496.000000	80.846261
3494.000000	80.795177
3492.000000	80.741501
3490.000000	80.682764
3488.000000	80.631245
3486.000000	80.592259
3484.000000	80.551499
3482.000000	80.514190
3480.000000	80.496725
3478.000000	80.491156
3476.000000	80.488623
3474.000000	80.492286
3472.000000	80.500865
3470.000000	80.512332
3468.000000	80.529352
3466.000000	80.556576
3464.000000	80.590679
3462.000000	80.626092
3460.000000	80.663858
3458.000000	80.701334
3456.000000	80.734056
3454.000000	80.761745
3452.000000	80.783047
3450.000000	80.792993
3448.000000	80.799680
3446.000000	80.827055
3444.000000	80.873055
3442.000000	80.929512
3440.000000	81.001737
3438.000000	81.087671
3436.000000	81.189241
3434.000000	81.311292
3432.000000	81.448441
3430.000000	81.591011
3428.000000	81.733256
3426.000000	81.869673
3424.000000	81.992701
3422.000000	82.104088
3420.000000	82.214631
3418.000000	82.321938
3416.000000	82.415580
3414.000000	82.496508
3412.000000	82.570991
3410.000000	82.639390
3408.000000	82.701091
3406.000000	82.758647
3404.000000	82.810993
3402.000000	82.859550
3400.000000	82.917373
3398.000000	82.991963
3396.000000	83.071541
3394.000000	83.142826
3392.000000	83.211342
3390.000000	83.287157
3388.000000	83.359805
3386.000000	83.420197
3384.000000	83.476486
3382.000000	83.533965
3380.000000	83.588595
3378.000000	83.639890
3376.000000	83.690051
3374.000000	83.736652
3372.000000	83.776949
3370.000000	83.814399
3368.000000	83.856717
3366.000000	83.903872
3364.000000	83.951046
3362.000000	83.996404
3360.000000	84.041272
3358.000000	84.085547
3356.000000	84.128365
3354.000000	84.169180
3352.000000	84.206958
3350.000000	84.245259
3348.000000	84.288788
3346.000000	84.332843
3344.000000	84.373239
3342.000000	84.412584
3340.000000	84.450127
3338.000000	84.486099
3336.000000	84.525213
3334.000000	84.567723
3332.000000	84.608901
3330.000000	84.647570
3328.000000	84.683357
3326.000000	84.717954
3324.000000	84.756365
3322.000000	84.795603
3320.000000	84.833118
3318.000000	84.867768
3316.000000	84.901318
3314.000000	84.935486
3312.000000	84.966948
3310.000000	84.995391
3308.000000	85.023410
3306.000000	85.054512
3304.000000	85.095427
3302.000000	85.140836
3300.000000	85.179309
3298.000000	85.213578
3296.000000	85.247084
3294.000000	85.279328
3292.000000	85.314035
3290.000000	85.354506
3288.000000	85.395780
3286.000000	85.434363
3284.000000	85.472656
3282.000000	85.511209
3280.000000	85.548759
3278.000000	85.584765
3276.000000	85.619309
3274.000000	85.655246
3272.000000	85.694572
3270.000000	85.738578
3268.000000	85.786337
3266.000000	85.831249
3264.000000	85.873580
3262.000000	85.914845
3260.000000	85.956792
3258.000000	85.999221
3256.000000	86.041169
3254.000000	86.087203
3252.000000	86.137634
3250.000000	86.185693
3248.000000	86.230600
3246.000000	86.275333
3244.000000	86.325397
3242.000000	86.378388
3240.000000	86.429876
3238.000000	86.479667
3236.000000	86.526334
3234.000000	86.571479
3232.000000	86.620561
3230.000000	86.673368
3228.000000	86.725244
3226.000000	86.775658
3224.000000	86.824615
3222.000000	86.870078
3220.000000	86.916144
3218.000000	86.965249
3216.000000	87.014290
3214.000000	87.062268
3212.000000	87.110229
3210.000000	87.161088
3208.000000	87.220201
3206.000000	87.283815
3204.000000	87.349164
3202.000000	87.418334
3200.000000	87.488237
3198.000000	87.558251
3196.000000	87.630881
3194.000000	87.704404
3192.000000	87.776231
3190.000000	87.848340
3188.000000	87.918246
3186.000000	87.985976
3184.000000	88.058362
3182.000000	88.131666
3180.000000	88.200288
3178.000000	88.269341
3176.000000	88.342035
3174.000000	88.415246
3172.000000	88.489184
3170.000000	88.563024
3168.000000	88.635057
3166.000000	88.707824
3164.000000	88.782975
3162.000000	88.859073
3160.000000	88.936152
3158.000000	89.013712
3156.000000	89.091390
3154.000000	89.165972
3152.000000	89.240584
3150.000000	89.320634
3148.000000	89.401946
3146.000000	89.478240
3144.000000	89.552832
3142.000000	89.626289
3140.000000	89.696207
3138.000000	89.766158
3136.000000	89.837075
3134.000000	89.903721
3132.000000	89.971025
3130.000000	90.039700
3128.000000	90.104336
3126.000000	90.164154
3124.000000	90.221900
3122.000000	90.276731
3120.000000	90.328573
3118.000000	90.380707
3116.000000	90.435353
3114.000000	90.495088
3112.000000	90.552034
3110.000000	90.601922
3108.000000	90.654035
3106.000000	90.710768
3104.000000	90.768836
3102.000000	90.827097
3100.000000	90.890347
3098.000000	90.956954
3096.000000	91.021698
3094.000000	91.086819
3092.000000	91.150054
3090.000000	91.207765
3088.000000	91.263643
3086.000000	91.317948
3084.000000	91.368859
3082.000000	91.413871
3080.000000	91.451727
3078.000000	91.487623
3076.000000	91.523059
3074.000000	91.551216
3072.000000	91.569896
3070.000000	91.579286
3068.000000	91.584749
3066.000000	91.601236
3064.000000	91.637230
3062.000000	91.683689
3060.000000	91.735079
3058.000000	91.791345
3056.000000	91.852021
3054.000000	91.914421
3052.000000	91.972504
3050.000000	92.023447
3048.000000	92.070114
3046.000000	92.111464
3044.000000	92.143905
3042.000000	92.169729
3040.000000	92.194326
3038.000000	92.213292
3036.000000	92.222940
3034.000000	92.222907
3032.000000	92.210232
3030.000000	92.176135
3028.000000	92.106862
3026.000000	91.997811
3024.000000	91.867095
3022.000000	91.748159
3020.000000	91.682007
3018.000000	91.709433
3016.000000	91.851653
3014.000000	92.090487
3012.000000	92.377542
3010.000000	92.653516
3008.000000	92.877600
3006.000000	93.040097
3004.000000	93.153392
3002.000000	93.232413
3000.000000	93.289418
2998.000000	93.331380
2996.000000	93.362060
2994.000000	93.382307
2992.000000	93.393612
2990.000000	93.393150
2988.000000	93.375395
2986.000000	93.338452
2984.000000	93.280318
2982.000000	93.193258
2980.000000	93.072734
2978.000000	92.906651
2976.000000	92.679582
2974.000000	92.375699
2972.000000	91.982125
2970.000000	91.498866
2968.000000	90.970312
2966.000000	90.482731
2964.000000	90.124949
2962.000000	89.951521
2960.000000	89.962404
2958.000000	90.101179
2956.000000	90.292930
2954.000000	90.477732
2952.000000	90.621101
2950.000000	90.692600
2948.000000	90.657099
2946.000000	90.491993
2944.000000	90.194765
2942.000000	89.779972
2940.000000	89.282336
2938.000000	88.764409
2936.000000	88.289209
2934.000000	87.867901
2932.000000	87.469502
2930.000000	87.075915
2928.000000	86.741180
2926.000000	86.574088
2924.000000	86.681526
2922.000000	87.103686
2920.000000	87.784327
2918.000000	88.607226
2916.000000	89.464388
2914.000000	90.270145
2912.000000	90.963709
2910.000000	91.517052
2908.000000	91.948019
2906.000000	92.297907
2904.000000	92.601092
2902.000000	92.877077
2900.000000	93.133335
2898.000000	93.372566
2896.000000	93.598860
2894.000000	93.814304
2892.000000	94.017135
2890.000000	94.205089
2888.000000	94.369666
2886.000000	94.498654
2884.000000	94.587971
2882.000000	94.632887
2880.000000	94.630403
2878.000000	94.577581
2876.000000	94.466215
2874.000000	94.287064
2872.000000	94.031778
2870.000000	93.670791
2868.000000	93.181130
2866.000000	92.601734
2864.000000	92.054681
2862.000000	91.697367
2860.000000	91.620789
2858.000000	91.787927
2856.000000	92.089935
2854.000000	92.448942
2852.000000	92.864246
2850.000000	93.373829
2848.000000	93.981847
2846.000000	94.603070
2844.000000	95.142957
2842.000000	95.576431
2840.000000	95.919037
2838.000000	96.189682
2836.000000	96.409947
2834.000000	96.593430
2832.000000	96.750854
2830.000000	96.887235
2828.000000	97.008277
2826.000000	97.117942
2824.000000	97.220083
2822.000000	97.314397
2820.000000	97.399266
2818.000000	97.477290
2816.000000	97.548301
2814.000000	97.610815
2812.000000	97.666554
2810.000000	97.717701
2808.000000	97.768059
2806.000000	97.818218
2804.000000	97.866695
2802.000000	97.910999
2800.000000	97.954116
2798.000000	97.995610
2796.000000	98.036183
2794.000000	98.077242
2792.000000	98.122827
2790.000000	98.178027
2788.000000	98.247625
2786.000000	98.327391
2784.000000	98.411767
2782.000000	98.492522
2780.000000	98.567562
2778.000000	98.635664
2776.000000	98.695838
2774.000000	98.752466
2772.000000	98.810695
2770.000000	98.863905
2768.000000	98.912037
2766.000000	98.959771
2764.000000	99.007103
2762.000000	99.053357
2760.000000	99.099458
2758.000000	99.142892
2756.000000	99.185178
2754.000000	99.225863
2752.000000	99.266397
2750.000000	99.306586
2748.000000	99.344907
2746.000000	99.380937
2744.000000	99.414862
2742.000000	99.449151
2740.000000	99.485270
2738.000000	99.520084
2736.000000	99.551744
2734.000000	99.581759
2732.000000	99.616912
2730.000000	99.651722
2728.000000	99.683426
2726.000000	99.714935
2724.000000	99.748182
2722.000000	99.778588
2720.000000	99.808337
2718.000000	99.839626
2716.000000	99.871312
2714.000000	99.900198
2712.000000	99.926095
2710.000000	99.947834
2708.000000	99.970157
2706.000000	99.996963
2704.000000	100.026996
2702.000000	100.061121
2700.000000	100.103932
2698.000000	100.150415
2696.000000	100.196974
2694.000000	100.242932
2692.000000	100.286765
2690.000000	100.328385
2688.000000	100.370886
2686.000000	100.411710
2684.000000	100.450285
2682.000000	100.487593
2680.000000	100.522220
2678.000000	100.554879
2676.000000	100.587951
2674.000000	100.618374
2672.000000	100.647339
2670.000000	100.677803
2668.000000	100.709919
2666.000000	100.739296
2664.000000	100.767720
2662.000000	100.795215
2660.000000	100.824020
2658.000000	100.853835
2656.000000	100.886631
2654.000000	100.922746
2652.000000	100.961493
2650.000000	101.000496
2648.000000	101.040107
2646.000000	101.079051
2644.000000	101.118050
2642.000000	101.155289
2640.000000	101.189977
2638.000000	101.224422
2636.000000	101.260854
2634.000000	101.293359
2632.000000	101.323594
2630.000000	101.352237
2628.000000	101.382082
2626.000000	101.409363
2624.000000	101.436316
2622.000000	101.462933
2620.000000	101.490932
2618.000000	101.519716
2616.000000	101.547143
2614.000000	101.571676
2612.000000	101.594468
2610.000000	101.615556
2608.000000	101.635093
2606.000000	101.650939
2604.000000	101.665349
2602.000000	101.678194
2600.000000	101.690356
2598.000000	101.700297
2596.000000	101.711119
2594.000000	101.725025
2592.000000	101.746274
2590.000000	101.776777
2588.000000	101.820732
2586.000000	101.873808
2584.000000	101.931601
2582.000000	101.992422
2580.000000	102.054271
2578.000000	102.112599
2576.000000	102.165627
2574.000000	102.212875
2572.000000	102.256944
2570.000000	102.296702
2568.000000	102.335172
2566.000000	102.370105
2564.000000	102.402102
2562.000000	102.432155
2560.000000	102.461818
2558.000000	102.489945
2556.000000	102.516900
2554.000000	102.542684
2552.000000	102.568891
2550.000000	102.592406
2548.000000	102.617308
2546.000000	102.644563
2544.000000	102.672415
2542.000000	102.698080
2540.000000	102.723690
2538.000000	102.749184
2536.000000	102.776362
2534.000000	102.803861
2532.000000	102.830776
2530.000000	102.855158
2528.000000	102.880263
2526.000000	102.906561
2524.000000	102.931521
2522.000000	102.954252
2520.000000	102.977731
2518.000000	103.000999
2516.000000	103.025378
2514.000000	103.047715
2512.000000	103.069699
2510.000000	103.090656
2508.000000	103.112318
2506.000000	103.133497
2504.000000	103.154618
2502.000000	103.175162
2500.000000	103.197333
2498.000000	103.222412
2496.000000	103.250318
2494.000000	103.275937
2492.000000	103.301756
2490.000000	103.327693
2488.000000	103.354420
2486.000000	103.381222
2484.000000	103.406876
2482.000000	103.429918
2480.000000	103.455334
2478.000000	103.481177
2476.000000	103.503556
2474.000000	103.524071
2472.000000	103.544458
2470.000000	103.562652
2468.000000	103.581175
2466.000000	103.597558
2464.000000	103.613439
2462.000000	103.630417
2460.000000	103.646862
2458.000000	103.662130
2456.000000	103.679918
2454.000000	103.696284
2452.000000	103.712362
2450.000000	103.729972
2448.000000	103.747688
2446.000000	103.761329
2444.000000	103.774059
2442.000000	103.789045
2440.000000	103.805410
2438.000000	103.819232
2436.000000	103.834578
2434.000000	103.850133
2432.000000	103.864729
2430.000000	103.873854
2428.000000	103.882317
2426.000000	103.894769
2424.000000	103.912611
2422.000000	103.928292
2420.000000	103.943486
2418.000000	103.956317
2416.000000	103.967282
2414.000000	103.978500
2412.000000	103.990903
2410.000000	104.002458
2408.000000	104.015299
2406.000000	104.028821
2404.000000	104.044590
2402.000000	104.059439
2400.000000	104.073286
2398.000000	104.089847
2396.000000	104.110661
2394.000000	104.126702
2392.000000	104.141453
2390.000000	104.157686
2388.000000	104.172601
2386.000000	104.179208
2384.000000	104.174452
2382.000000	104.151668
2380.000000	104.104114
2378.000000	104.020449
2376.000000	103.898934
2374.000000	103.743089
2372.000000	103.562935
2370.000000	103.370513
2368.000000	103.186622
2366.000000	103.033036
2364.000000	102.933965
2362.000000	102.903843
2360.000000	102.949908
2358.000000	103.069973
2356.000000	103.262452
2354.000000	103.512956
2352.000000	103.790599
2350.000000	103.994502
2348.000000	103.989363
2346.000000	103.811458
2344.000000	103.619727
2342.000000	103.481257
2340.000000	103.403158
2338.000000	103.368585
2336.000000	103.367388
2334.000000	103.395025
2332.000000	103.445579
2330.000000	103.513944
2328.000000	103.598241
2326.000000	103.691764
2324.000000	103.788102
2322.000000	103.881311
2320.000000	103.972042
2318.000000	104.056287
2316.000000	104.134498
2314.000000	104.203749
2312.000000	104.264000
2310.000000	104.312355
2308.000000	104.352894
2306.000000	104.386219
2304.000000	104.416077
2302.000000	104.439193
2300.000000	104.458608
2298.000000	104.475918
2296.000000	104.493037
2294.000000	104.506440
2292.000000	104.519981
2290.000000	104.531858
2288.000000	104.542953
2286.000000	104.549205
2284.000000	104.551984
2282.000000	104.552111
2280.000000	104.551422
2278.000000	104.547263
2276.000000	104.544219
2274.000000	104.541339
2272.000000	104.537516
2270.000000	104.532821
2268.000000	104.529559
2266.000000	104.521536
2264.000000	104.515195
2262.000000	104.510632
2260.000000	104.508992
2258.000000	104.507664
2256.000000	104.506844
2254.000000	104.508429
2252.000000	104.514014
2250.000000	104.519449
2248.000000	104.527974
2246.000000	104.534012
2244.000000	104.543600
2242.000000	104.555663
2240.000000	104.567695
2238.000000	104.580732
2236.000000	104.596309
2234.000000	104.611116
2232.000000	104.625845
2230.000000	104.637780
2228.000000	104.648989
2226.000000	104.658480
2224.000000	104.669565
2222.000000	104.679214
2220.000000	104.687727
2218.000000	104.693394
2216.000000	104.701045
2214.000000	104.705604
2212.000000	104.709744
2210.000000	104.712613
2208.000000	104.717603
2206.000000	104.723030
2204.000000	104.729107
2202.000000	104.735001
2200.000000	104.741070
2198.000000	104.742648
2196.000000	104.744225
2194.000000	104.746772
2192.000000	104.750532
2190.000000	104.749592
2188.000000	104.749266
2186.000000	104.748043
2184.000000	104.747327
2182.000000	104.745012
2180.000000	104.742556
2178.000000	104.739532
2176.000000	104.738254
2174.000000	104.729353
2172.000000	104.705813
2170.000000	104.681220
2168.000000	104.693415
2166.000000	104.716363
2164.000000	104.724261
2162.000000	104.726227
2160.000000	104.726590
2158.000000	104.721917
2156.000000	104.721389
2154.000000	104.722691
2152.000000	104.721020
2150.000000	104.716493
2148.000000	104.715382
2146.000000	104.715015
2144.000000	104.715330
2142.000000	104.712372
2140.000000	104.710333
2138.000000	104.706909
2136.000000	104.706040
2134.000000	104.706096
2132.000000	104.706602
2130.000000	104.702315
2128.000000	104.698665
2126.000000	104.697495
2124.000000	104.697776
2122.000000	104.698506
2120.000000	104.700007
2118.000000	104.701465
2116.000000	104.705535
2114.000000	104.712744
2112.000000	104.722101
2110.000000	104.731046
2108.000000	104.743442
2106.000000	104.758036
2104.000000	104.772589
2102.000000	104.784392
2100.000000	104.796391
2098.000000	104.806842
2096.000000	104.818916
2094.000000	104.831534
2092.000000	104.844560
2090.000000	104.852857
2088.000000	104.869388
2086.000000	104.885337
2084.000000	104.903291
2082.000000	104.918084
2080.000000	104.934644
2078.000000	104.949449
2076.000000	104.966379
2074.000000	104.980301
2072.000000	104.998290
2070.000000	105.015998
2068.000000	105.033169
2066.000000	105.044679
2064.000000	105.065888
2062.000000	105.092636
2060.000000	105.117696
2058.000000	105.138811
2056.000000	105.160090
2054.000000	105.179200
2052.000000	105.198807
2050.000000	105.218212
2048.000000	105.241576
2046.000000	105.260493
2044.000000	105.273785
2042.000000	105.285009
2040.000000	105.305810
2038.000000	105.322930
2036.000000	105.335430
2034.000000	105.343391
2032.000000	105.342320
2030.000000	105.324609
2028.000000	105.332958
2026.000000	105.367604
2024.000000	105.391860
2022.000000	105.400262
2020.000000	105.400789
2018.000000	105.398923
2016.000000	105.420329
2014.000000	105.453600
2012.000000	105.477783
2010.000000	105.490965
2008.000000	105.503819
2006.000000	105.517606
2004.000000	105.529511
2002.000000	105.537229
2000.000000	105.542331
1998.000000	105.544783
1996.000000	105.546073
1994.000000	105.522054
1992.000000	105.496727
1990.000000	105.512329
1988.000000	105.530604
1986.000000	105.534814
1984.000000	105.530275
1982.000000	105.519364
1980.000000	105.508741
1978.000000	105.495618
1976.000000	105.481161
1974.000000	105.463335
1972.000000	105.445056
1970.000000	105.413577
1968.000000	105.366233
1966.000000	105.344622
1964.000000	105.339012
1962.000000	105.282454
1960.000000	105.160006
1958.000000	105.128236
1956.000000	105.209438
1954.000000	105.237442
1952.000000	105.216247
1950.000000	105.182246
1948.000000	105.160087
1946.000000	105.123959
1944.000000	105.057065
1942.000000	105.023019
1940.000000	105.056770
1938.000000	105.060322
1936.000000	105.039625
1934.000000	105.012779
1932.000000	104.988097
1930.000000	104.958163
1928.000000	104.928801
1926.000000	104.879799
1924.000000	104.805592
1922.000000	104.753795
1920.000000	104.676526
1918.000000	104.581862
1916.000000	104.624001
1914.000000	104.648347
1912.000000	104.595438
1910.000000	104.518791
1908.000000	104.472063
1906.000000	104.429851
1904.000000	104.381754
1902.000000	104.328733
1900.000000	104.283717
1898.000000	104.225996
1896.000000	104.166124
1894.000000	104.132034
1892.000000	104.085707
1890.000000	104.006390
1888.000000	104.022260
1886.000000	104.051762
1884.000000	104.044489
1882.000000	104.026481
1880.000000	104.005992
1878.000000	103.978877
1876.000000	103.957631
1874.000000	103.921794
1872.000000	103.817818
1870.000000	103.624941
1868.000000	103.594818
1866.000000	103.709267
1864.000000	103.759781
1862.000000	103.736953
1860.000000	103.704807
1858.000000	103.670679
1856.000000	103.643513
1854.000000	103.605689
1852.000000	103.567363
1850.000000	103.504950
1848.000000	103.395223
1846.000000	103.116634
1844.000000	102.936379
1842.000000	103.132858
1840.000000	103.259707
1838.000000	103.210306
1836.000000	103.160702
1834.000000	103.092767
1832.000000	102.905661
1830.000000	102.717881
1828.000000	102.724075
1826.000000	102.675086
1824.000000	102.655671
1822.000000	102.698329
1820.000000	102.662002
1818.000000	102.580801
1816.000000	102.516944
1814.000000	102.430905
1812.000000	102.294630
1810.000000	102.195110
1808.000000	102.153929
1806.000000	102.075840
1804.000000	101.926983
1802.000000	101.722919
1800.000000	101.600926
1798.000000	101.560117
1796.000000	101.433273
1794.000000	101.067457
1792.000000	100.845665
1790.000000	100.992173
1788.000000	101.045511
1786.000000	100.873054
1784.000000	100.742919
1782.000000	100.643211
1780.000000	100.537440
1778.000000	100.463393
1776.000000	100.251397
1774.000000	99.758357
1772.000000	99.495587
1770.000000	99.670108
1768.000000	99.752294
1766.000000	99.832829
1764.000000	99.704016
1762.000000	99.448647
1760.000000	99.416447
1758.000000	99.317278
1756.000000	99.181383
1754.000000	98.993492
1752.000000	98.530308
1750.000000	98.329262
1748.000000	98.377741
1746.000000	98.345018
1744.000000	98.191356
1742.000000	97.925486
1740.000000	97.672409
1738.000000	97.602982
1736.000000	97.067985
1734.000000	96.526605
1732.000000	96.974748
1730.000000	97.403875
1728.000000	97.489072
1726.000000	97.458324
1724.000000	97.374140
1722.000000	97.248267
1720.000000	96.742503
1718.000000	96.043992
1716.000000	96.135124
1714.000000	96.587364
1712.000000	96.784632
1710.000000	96.709019
1708.000000	96.478088
1706.000000	96.209351
1704.000000	96.048648
1702.000000	95.398389
1700.000000	94.909749
1698.000000	95.047794
1696.000000	94.970335
1694.000000	95.536284
1692.000000	96.033375
1690.000000	95.979866
1688.000000	95.693589
1686.000000	94.814727
1684.000000	94.467405
1682.000000	95.207776
1680.000000	95.618526
1678.000000	95.490922
1676.000000	95.097920
1674.000000	95.058603
1672.000000	95.051491
1670.000000	94.787291
1668.000000	94.880859
1666.000000	95.038041
1664.000000	94.815911
1662.000000	94.681923
1660.000000	94.772119
1658.000000	94.670596
1656.000000	93.920734
1654.000000	92.556341
1652.000000	92.599383
1650.000000	93.590382
1648.000000	93.479766
1646.000000	93.240418
1644.000000	93.574632
1642.000000	93.745667
1640.000000	93.555196
1638.000000	93.007672
1636.000000	92.371788
1634.000000	92.543297
1632.000000	92.867721
1630.000000	92.679926
1628.000000	92.335990
1626.000000	91.966394
1624.000000	91.441208
1622.000000	91.046487
1620.000000	90.628051
1618.000000	89.794992
1616.000000	89.329644
1614.000000	89.301603
1612.000000	88.819081
1610.000000	88.197617
1608.000000	87.874169
1606.000000	87.898419
1604.000000	88.092721
1602.000000	88.336632
1600.000000	88.571302
1598.000000	88.774473
1596.000000	88.925343
1594.000000	89.039628
1592.000000	89.102471
1590.000000	89.105541
1588.000000	89.066684
1586.000000	88.999461
1584.000000	88.923960
1582.000000	88.868630
1580.000000	88.758748
1578.000000	88.233818
1576.000000	87.850348
1574.000000	88.296324
1572.000000	88.413930
1570.000000	88.098042
1568.000000	88.071211
1566.000000	88.037928
1564.000000	87.757891
1562.000000	86.943219
1560.000000	85.695923
1558.000000	85.665746
1556.000000	86.501989
1554.000000	87.016250
1552.000000	87.444267
1550.000000	87.720015
1548.000000	87.899475
1546.000000	87.878210
1544.000000	87.697729
1542.000000	87.318478
1540.000000	87.142458
1538.000000	87.961132
1536.000000	88.770397
1534.000000	88.844075
1532.000000	89.071407
1530.000000	89.286985
1528.000000	89.185891
1526.000000	89.005454
1524.000000	88.759709
1522.000000	88.299522
1520.000000	88.320868
1518.000000	88.468767
1516.000000	88.359666
1514.000000	88.255510
1512.000000	88.062221
1510.000000	87.657580
1508.000000	86.689293
1506.000000	86.059522
1504.000000	86.057389
1502.000000	85.105162
1500.000000	82.683947
1498.000000	79.462502
1496.000000	76.942772
1494.000000	76.464882
1492.000000	77.560065
1490.000000	79.360704
1488.000000	81.286894
1486.000000	82.833493
1484.000000	83.848208
1482.000000	84.367345
1480.000000	84.607450
1478.000000	84.564218
1476.000000	84.287033
1474.000000	83.858102
1472.000000	83.668775
1470.000000	83.782827
1468.000000	83.587391
1466.000000	83.055909
1464.000000	82.671509
1462.000000	82.360006
1460.000000	81.486087
1458.000000	80.014118
1456.000000	78.973292
1454.000000	78.476877
1452.000000	77.949391
1450.000000	78.029095
1448.000000	78.871800
1446.000000	79.831623
1444.000000	80.310758
1442.000000	80.426610
1440.000000	80.353765
1438.000000	80.057251
1436.000000	80.040227
1434.000000	80.409840
1432.000000	80.485420
1430.000000	80.423851
1428.000000	80.442931
1426.000000	80.442911
1424.000000	80.351287
1422.000000	80.147563
1420.000000	79.705097
1418.000000	79.614140
1416.000000	79.717929
1414.000000	79.577314
1412.000000	79.226394
1410.000000	78.695967
1408.000000	77.940979
1406.000000	77.128020
1404.000000	76.659428
1402.000000	76.670532
1400.000000	76.915678
1398.000000	77.352205
1396.000000	77.739147
1394.000000	78.056414
1392.000000	78.358478
1390.000000	78.366121
1388.000000	78.071154
1386.000000	77.779434
1384.000000	77.663374
1382.000000	77.768366
1380.000000	77.871422
1378.000000	77.820195
1376.000000	77.669690
1374.000000	77.539639
1372.000000	77.494861
1370.000000	77.395997
1368.000000	77.237816
1366.000000	77.077167
1364.000000	76.859791
1362.000000	76.679429
1360.000000	76.574009
1358.000000	76.436090
1356.000000	76.241900
1354.000000	76.035436
1352.000000	75.824069
1350.000000	75.605736
1348.000000	75.386453
1346.000000	75.159462
1344.000000	74.912520
1342.000000	74.643754
1340.000000	74.396131
1338.000000	74.255656
1336.000000	74.174841
1334.000000	74.074140
1332.000000	73.921298
1330.000000	73.730209
1328.000000	73.508542
1326.000000	73.265500
1324.000000	73.000007
1322.000000	72.716375
1320.000000	72.414217
1318.000000	72.115703
1316.000000	71.818577
1314.000000	71.508087
1312.000000	71.191747
1310.000000	70.877566
1308.000000	70.553289
1306.000000	70.221972
1304.000000	69.879922
1302.000000	69.535093
1300.000000	69.188817
1298.000000	68.842360
1296.000000	68.486406
1294.000000	68.118271
1292.000000	67.733571
1290.000000	67.338862
1288.000000	66.936754
1286.000000	66.536362
1284.000000	66.122282
1282.000000	65.689773
1280.000000	65.231153
1278.000000	64.741269
1276.000000	64.201802
1274.000000	63.590426
1272.000000	62.865607
1270.000000	61.981858
1268.000000	60.876735
1266.000000	59.556000
1264.000000	58.185636
1262.000000	57.088568
1260.000000	56.540521
1258.000000	56.545470
1256.000000	56.834008
1254.000000	57.078343
1252.000000	57.070831
1250.000000	56.820555
1248.000000	56.424773
1246.000000	55.956538
1244.000000	55.446229
1242.000000	54.926285
1240.000000	54.417221
1238.000000	53.925012
1236.000000	53.447393
1234.000000	52.985744
1232.000000	52.530883
1230.000000	52.083810
1228.000000	51.638982
1226.000000	51.191996
1224.000000	50.733685
1222.000000	50.259684
1220.000000	49.767261
1218.000000	49.257184
1216.000000	48.733576
1214.000000	48.217343
1212.000000	47.726763
1210.000000	47.273302
1208.000000	46.854216
1206.000000	46.456236
1204.000000	46.058909
1202.000000	45.661732
1200.000000	45.268261
1198.000000	44.879982
1196.000000	44.488740
1194.000000	44.087729
1192.000000	43.667383
1190.000000	43.235127
1188.000000	42.792634
1186.000000	42.321495
1184.000000	41.736101
1182.000000	41.005863
1180.000000	40.440754
1178.000000	40.195891
1176.000000	39.965920
1174.000000	39.609581
1172.000000	39.180717
1170.000000	38.731459
1168.000000	38.267123
1166.000000	37.790660
1164.000000	37.319652
1162.000000	36.861624
1160.000000	36.404707
1158.000000	35.966596
1156.000000	35.543445
1154.000000	35.122291
1152.000000	34.697290
1150.000000	34.276639
1148.000000	33.844445
1146.000000	33.404206
1144.000000	32.972104
1142.000000	32.592120
1140.000000	32.280120
1138.000000	31.968152
1136.000000	31.609105
1134.000000	31.216883
1132.000000	30.802099
1130.000000	30.377065
1128.000000	29.951103
1126.000000	29.528553
1124.000000	29.101429
1122.000000	28.664002
1120.000000	28.214340
1118.000000	27.755301
1116.000000	27.288553
1114.000000	26.819841
1112.000000	26.352573
1110.000000	25.890300
1108.000000	25.434767
1106.000000	24.999419
1104.000000	24.580662
1102.000000	24.167864
1100.000000	23.755488
1098.000000	23.350226
1096.000000	22.954350
1094.000000	22.571880
1092.000000	22.202266
1090.000000	21.848553
1088.000000	21.506091
1086.000000	21.167473
1084.000000	20.818235
1082.000000	20.460154
1080.000000	20.121458
1078.000000	19.815170
1076.000000	19.536185
1074.000000	19.302909
1072.000000	19.086533
1070.000000	18.863428
1068.000000	18.633897
1066.000000	18.401549
1064.000000	18.169482
1062.000000	17.935983
1060.000000	17.688704
1058.000000	17.403549
1056.000000	17.014171
1054.000000	16.497064
1052.000000	15.987247
1050.000000	15.690649
1048.000000	15.657678
1046.000000	15.737546
1044.000000	15.735024
1042.000000	15.617070
1040.000000	15.433974
1038.000000	15.224585
1036.000000	14.997723
1034.000000	14.757478
1032.000000	14.507386
1030.000000	14.251754
1028.000000	13.986268
1026.000000	13.717134
1024.000000	13.446003
1022.000000	13.179343
1020.000000	12.925641
1018.000000	12.692475
1016.000000	12.479434
1014.000000	12.288047
1012.000000	12.114853
1010.000000	11.951434
1008.000000	11.783213
1006.000000	11.607492
1004.000000	11.418225
1002.000000	11.203086
1000.000000	10.967363
