PE IR       SUBTECH     SPECTRUM    ASCII       PEDS        4.00        
   -1
TE109A_023_80K_after_90K_BG.ASC
20/04/21
12:58:40.00
20/04/21
12:58:40.00
Administrator
TE109A, Tuesday, April 21 2020, 002.
1000.000000
#HDR
-1
-1
#GR
cm-1
EGY
1.0
0.0
6000.000000
-2.000000
2501
8
104.020804
10.947810
#DATA
6000.000000	15.445466
5998.000000	15.476638
5996.000000	15.507079
5994.000000	15.537437
5992.000000	15.567448
5990.000000	15.596381
5988.000000	15.627067
5986.000000	15.659163
5984.000000	15.690938
5982.000000	15.722626
5980.000000	15.751872
5978.000000	15.783245
5976.000000	15.813784
5974.000000	15.845752
5972.000000	15.877545
5970.000000	15.908773
5968.000000	15.939743
5966.000000	15.970692
5964.000000	16.001111
5962.000000	16.031940
5960.000000	16.063491
5958.000000	16.096356
5956.000000	16.128697
5954.000000	16.159057
5952.000000	16.188908
5950.000000	16.221296
5948.000000	16.253838
5946.000000	16.286955
5944.000000	16.317734
5942.000000	16.348967
5940.000000	16.379904
5938.000000	16.410642
5936.000000	16.441678
5934.000000	16.473093
5932.000000	16.504424
5930.000000	16.536227
5928.000000	16.567724
5926.000000	16.600060
5924.000000	16.631316
5922.000000	16.662509
5920.000000	16.695301
5918.000000	16.729700
5916.000000	16.763820
5914.000000	16.798247
5912.000000	16.831959
5910.000000	16.865727
5908.000000	16.898770
5906.000000	16.932611
5904.000000	16.967076
5902.000000	17.001183
5900.000000	17.033659
5898.000000	17.065956
5896.000000	17.097971
5894.000000	17.131670
5892.000000	17.165229
5890.000000	17.197914
5888.000000	17.231297
5886.000000	17.266095
5884.000000	17.300572
5882.000000	17.333670
5880.000000	17.364812
5878.000000	17.397197
5876.000000	17.429575
5874.000000	17.463195
5872.000000	17.498132
5870.000000	17.533899
5868.000000	17.568558
5866.000000	17.602364
5864.000000	17.635979
5862.000000	17.671226
5860.000000	17.707015
5858.000000	17.741425
5856.000000	17.773713
5854.000000	17.807356
5852.000000	17.842376
5850.000000	17.879154
5848.000000	17.914113
5846.000000	17.950719
5844.000000	17.988903
5842.000000	18.028087
5840.000000	18.066352
5838.000000	18.104968
5836.000000	18.144007
5834.000000	18.181748
5832.000000	18.219439
5830.000000	18.257308
5828.000000	18.296014
5826.000000	18.335878
5824.000000	18.376269
5822.000000	18.417749
5820.000000	18.455584
5818.000000	18.490392
5816.000000	18.524794
5814.000000	18.561995
5812.000000	18.601792
5810.000000	18.641480
5808.000000	18.677780
5806.000000	18.713900
5804.000000	18.749660
5802.000000	18.786963
5800.000000	18.823893
5798.000000	18.861764
5796.000000	18.901564
5794.000000	18.941614
5792.000000	18.980100
5790.000000	19.018049
5788.000000	19.056352
5786.000000	19.095423
5784.000000	19.133351
5782.000000	19.170411
5780.000000	19.208323
5778.000000	19.246767
5776.000000	19.285033
5774.000000	19.322283
5772.000000	19.360224
5770.000000	19.399993
5768.000000	19.439929
5766.000000	19.479424
5764.000000	19.517360
5762.000000	19.555303
5760.000000	19.594217
5758.000000	19.633663
5756.000000	19.672803
5754.000000	19.711906
5752.000000	19.750267
5750.000000	19.787877
5748.000000	19.824293
5746.000000	19.861883
5744.000000	19.900211
5742.000000	19.938571
5740.000000	19.975141
5738.000000	20.012277
5736.000000	20.050565
5734.000000	20.089573
5732.000000	20.127921
5730.000000	20.165769
5728.000000	20.203338
5726.000000	20.241956
5724.000000	20.279439
5722.000000	20.317873
5720.000000	20.355518
5718.000000	20.394893
5716.000000	20.434360
5714.000000	20.475214
5712.000000	20.516101
5710.000000	20.556749
5708.000000	20.596544
5706.000000	20.635658
5704.000000	20.675013
5702.000000	20.717094
5700.000000	20.760893
5698.000000	20.805896
5696.000000	20.848989
5694.000000	20.890191
5692.000000	20.929965
5690.000000	20.970899
5688.000000	21.012062
5686.000000	21.053927
5684.000000	21.095896
5682.000000	21.138807
5680.000000	21.182051
5678.000000	21.224149
5676.000000	21.265541
5674.000000	21.307284
5672.000000	21.350159
5670.000000	21.393058
5668.000000	21.435311
5666.000000	21.477081
5664.000000	21.518383
5662.000000	21.560650
5660.000000	21.602300
5658.000000	21.646118
5656.000000	21.690055
5654.000000	21.732695
5652.000000	21.773838
5650.000000	21.814925
5648.000000	21.855140
5646.000000	21.896720
5644.000000	21.939040
5642.000000	21.983286
5640.000000	22.026021
5638.000000	22.068240
5636.000000	22.110417
5634.000000	22.153403
5632.000000	22.193933
5630.000000	22.234729
5628.000000	22.276550
5626.000000	22.319720
5624.000000	22.362212
5622.000000	22.403474
5620.000000	22.445111
5618.000000	22.488388
5616.000000	22.530573
5614.000000	22.572356
5612.000000	22.614847
5610.000000	22.658617
5608.000000	22.701044
5606.000000	22.741807
5604.000000	22.784359
5602.000000	22.828486
5600.000000	22.871803
5598.000000	22.914972
5596.000000	22.958843
5594.000000	23.003770
5592.000000	23.046734
5590.000000	23.089265
5588.000000	23.131171
5586.000000	23.173676
5584.000000	23.216642
5582.000000	23.259758
5580.000000	23.303682
5578.000000	23.348844
5576.000000	23.393834
5574.000000	23.437295
5572.000000	23.479717
5570.000000	23.524312
5568.000000	23.570058
5566.000000	23.616098
5564.000000	23.660939
5562.000000	23.705970
5560.000000	23.750191
5558.000000	23.794578
5556.000000	23.837925
5554.000000	23.881029
5552.000000	23.924576
5550.000000	23.969503
5548.000000	24.014770
5546.000000	24.060235
5544.000000	24.105311
5542.000000	24.149944
5540.000000	24.191631
5538.000000	24.233258
5536.000000	24.275945
5534.000000	24.321654
5532.000000	24.368258
5530.000000	24.414874
5528.000000	24.460025
5526.000000	24.503317
5524.000000	24.544563
5522.000000	24.588108
5520.000000	24.632466
5518.000000	24.678043
5516.000000	24.723211
5514.000000	24.767274
5512.000000	24.809548
5510.000000	24.850829
5508.000000	24.892259
5506.000000	24.936882
5504.000000	24.982618
5502.000000	25.029512
5500.000000	25.076536
5498.000000	25.121136
5496.000000	25.160435
5494.000000	25.199145
5492.000000	25.242095
5490.000000	25.292042
5488.000000	25.342574
5486.000000	25.392441
5484.000000	25.441335
5482.000000	25.488901
5480.000000	25.529742
5478.000000	25.564906
5476.000000	25.603599
5474.000000	25.653563
5472.000000	25.707535
5470.000000	25.756602
5468.000000	25.801481
5466.000000	25.846135
5464.000000	25.888517
5462.000000	25.931423
5460.000000	25.978455
5458.000000	26.029884
5456.000000	26.080991
5454.000000	26.127670
5452.000000	26.168459
5450.000000	26.205075
5448.000000	26.241657
5446.000000	26.283876
5444.000000	26.328900
5442.000000	26.379702
5440.000000	26.431100
5438.000000	26.478281
5436.000000	26.523040
5434.000000	26.567319
5432.000000	26.608939
5430.000000	26.651676
5428.000000	26.702409
5426.000000	26.763341
5424.000000	26.822154
5422.000000	26.873940
5420.000000	26.919459
5418.000000	26.953290
5416.000000	26.977453
5414.000000	27.006445
5412.000000	27.051883
5410.000000	27.112871
5408.000000	27.174461
5406.000000	27.231816
5404.000000	27.282949
5402.000000	27.329799
5400.000000	27.370966
5398.000000	27.406453
5396.000000	27.440804
5394.000000	27.486103
5392.000000	27.542849
5390.000000	27.599445
5388.000000	27.643738
5386.000000	27.686272
5384.000000	27.737408
5382.000000	27.790282
5380.000000	27.829470
5378.000000	27.865347
5376.000000	27.912729
5374.000000	27.974520
5372.000000	28.036835
5370.000000	28.092401
5368.000000	28.139490
5366.000000	28.182845
5364.000000	28.229085
5362.000000	28.280440
5360.000000	28.330146
5358.000000	28.370512
5356.000000	28.403288
5354.000000	28.440758
5352.000000	28.489282
5350.000000	28.541688
5348.000000	28.579730
5346.000000	28.614772
5344.000000	28.660897
5342.000000	28.711447
5340.000000	28.755696
5338.000000	28.803491
5336.000000	28.864993
5334.000000	28.929015
5332.000000	28.979544
5330.000000	29.021725
5328.000000	29.067601
5326.000000	29.120846
5324.000000	29.178341
5322.000000	29.232952
5320.000000	29.282578
5318.000000	29.329494
5316.000000	29.375082
5314.000000	29.423095
5312.000000	29.469127
5310.000000	29.510207
5308.000000	29.552593
5306.000000	29.602193
5304.000000	29.657087
5302.000000	29.707970
5300.000000	29.755850
5298.000000	29.805771
5296.000000	29.854465
5294.000000	29.896611
5292.000000	29.936294
5290.000000	29.983853
5288.000000	30.036856
5286.000000	30.090996
5284.000000	30.142054
5282.000000	30.194089
5280.000000	30.245591
5278.000000	30.297908
5276.000000	30.349882
5274.000000	30.399692
5272.000000	30.445229
5270.000000	30.488960
5268.000000	30.528111
5266.000000	30.564770
5264.000000	30.607877
5262.000000	30.664817
5260.000000	30.726353
5258.000000	30.777129
5256.000000	30.821000
5254.000000	30.868779
5252.000000	30.917539
5250.000000	30.961491
5248.000000	31.003660
5246.000000	31.054396
5244.000000	31.114189
5242.000000	31.175938
5240.000000	31.233693
5238.000000	31.285074
5236.000000	31.332106
5234.000000	31.377490
5232.000000	31.422736
5230.000000	31.466754
5228.000000	31.507434
5226.000000	31.552434
5224.000000	31.606495
5222.000000	31.665386
5220.000000	31.719918
5218.000000	31.771810
5216.000000	31.824358
5214.000000	31.875091
5212.000000	31.916380
5210.000000	31.948555
5208.000000	31.983668
5206.000000	32.036832
5204.000000	32.103226
5202.000000	32.167156
5200.000000	32.218836
5198.000000	32.267182
5196.000000	32.318649
5194.000000	32.373592
5192.000000	32.426570
5190.000000	32.475974
5188.000000	32.522468
5186.000000	32.571673
5184.000000	32.626774
5182.000000	32.685290
5180.000000	32.740855
5178.000000	32.795037
5176.000000	32.847282
5174.000000	32.896888
5172.000000	32.944618
5170.000000	32.996004
5168.000000	33.049055
5166.000000	33.100540
5164.000000	33.151408
5162.000000	33.204932
5160.000000	33.257393
5158.000000	33.307215
5156.000000	33.357526
5154.000000	33.410323
5152.000000	33.463109
5150.000000	33.516070
5148.000000	33.569634
5146.000000	33.621524
5144.000000	33.671150
5142.000000	33.722681
5140.000000	33.775528
5138.000000	33.828003
5136.000000	33.878578
5134.000000	33.930602
5132.000000	33.982871
5130.000000	34.035439
5128.000000	34.088333
5126.000000	34.141800
5124.000000	34.193997
5122.000000	34.243496
5120.000000	34.290421
5118.000000	34.340154
5116.000000	34.393866
5114.000000	34.448697
5112.000000	34.500531
5110.000000	34.552269
5108.000000	34.604279
5106.000000	34.656749
5104.000000	34.709248
5102.000000	34.763073
5100.000000	34.816183
5098.000000	34.870258
5096.000000	34.924539
5094.000000	34.978999
5092.000000	35.031926
5090.000000	35.084202
5088.000000	35.136577
5086.000000	35.190997
5084.000000	35.246214
5082.000000	35.301507
5080.000000	35.355543
5078.000000	35.409658
5076.000000	35.463352
5074.000000	35.518267
5072.000000	35.573719
5070.000000	35.629319
5068.000000	35.682583
5066.000000	35.734837
5064.000000	35.787441
5062.000000	35.842576
5060.000000	35.898498
5058.000000	35.953840
5056.000000	36.006372
5054.000000	36.058756
5052.000000	36.111617
5050.000000	36.166298
5048.000000	36.220717
5046.000000	36.276113
5044.000000	36.330674
5042.000000	36.384218
5040.000000	36.435193
5038.000000	36.487347
5036.000000	36.540661
5034.000000	36.595115
5032.000000	36.647656
5030.000000	36.701875
5028.000000	36.756344
5026.000000	36.810913
5024.000000	36.864010
5022.000000	36.919133
5020.000000	36.974720
5018.000000	37.028335
5016.000000	37.079113
5014.000000	37.131375
5012.000000	37.186173
5010.000000	37.241776
5008.000000	37.295933
5006.000000	37.350976
5004.000000	37.405845
5002.000000	37.461663
5000.000000	37.517991
4998.000000	37.575051
4996.000000	37.629779
4994.000000	37.685047
4992.000000	37.741438
4990.000000	37.797158
4988.000000	37.851339
4986.000000	37.907464
4984.000000	37.965210
4982.000000	38.023021
4980.000000	38.078779
4978.000000	38.133792
4976.000000	38.188575
4974.000000	38.245333
4972.000000	38.301974
4970.000000	38.358346
4968.000000	38.414137
4966.000000	38.470556
4964.000000	38.526324
4962.000000	38.581117
4960.000000	38.634343
4958.000000	38.688627
4956.000000	38.744373
4954.000000	38.800859
4952.000000	38.855598
4950.000000	38.909667
4948.000000	38.964175
4946.000000	39.020218
4944.000000	39.075750
4942.000000	39.131118
4940.000000	39.185832
4938.000000	39.241037
4936.000000	39.295696
4934.000000	39.350355
4932.000000	39.403539
4930.000000	39.457495
4928.000000	39.511980
4926.000000	39.567517
4924.000000	39.622399
4922.000000	39.677695
4920.000000	39.732815
4918.000000	39.788361
4916.000000	39.844165
4914.000000	39.899850
4912.000000	39.955113
4910.000000	40.011887
4908.000000	40.070346
4906.000000	40.129158
4904.000000	40.185976
4902.000000	40.240954
4900.000000	40.294574
4898.000000	40.349873
4896.000000	40.406088
4894.000000	40.463159
4892.000000	40.520737
4890.000000	40.580561
4888.000000	40.640379
4886.000000	40.699104
4884.000000	40.755334
4882.000000	40.811992
4880.000000	40.868677
4878.000000	40.925144
4876.000000	40.982198
4874.000000	41.040838
4872.000000	41.097772
4870.000000	41.153140
4868.000000	41.208355
4866.000000	41.265023
4864.000000	41.322240
4862.000000	41.379420
4860.000000	41.434785
4858.000000	41.492080
4856.000000	41.550556
4854.000000	41.606931
4852.000000	41.660372
4850.000000	41.715766
4848.000000	41.772744
4846.000000	41.829392
4844.000000	41.885959
4842.000000	41.943378
4840.000000	41.998473
4838.000000	42.052202
4836.000000	42.107224
4834.000000	42.165315
4832.000000	42.222638
4830.000000	42.280001
4828.000000	42.335961
4826.000000	42.390836
4824.000000	42.445309
4822.000000	42.502249
4820.000000	42.559356
4818.000000	42.615835
4816.000000	42.671507
4814.000000	42.730005
4812.000000	42.789549
4810.000000	42.848803
4808.000000	42.904965
4806.000000	42.961346
4804.000000	43.019124
4802.000000	43.078445
4800.000000	43.135696
4798.000000	43.192680
4796.000000	43.251084
4794.000000	43.311699
4792.000000	43.371848
4790.000000	43.431243
4788.000000	43.489650
4786.000000	43.548922
4784.000000	43.608497
4782.000000	43.667772
4780.000000	43.725629
4778.000000	43.782686
4776.000000	43.840101
4774.000000	43.897932
4772.000000	43.955148
4770.000000	44.013921
4768.000000	44.073307
4766.000000	44.131767
4764.000000	44.188520
4762.000000	44.246401
4760.000000	44.303732
4758.000000	44.360781
4756.000000	44.417761
4754.000000	44.475000
4752.000000	44.530023
4750.000000	44.585191
4748.000000	44.640898
4746.000000	44.697957
4744.000000	44.755070
4742.000000	44.812084
4740.000000	44.868346
4738.000000	44.924931
4736.000000	44.979790
4734.000000	45.034941
4732.000000	45.092944
4730.000000	45.153017
4728.000000	45.211155
4726.000000	45.269057
4724.000000	45.325806
4722.000000	45.381984
4720.000000	45.439176
4718.000000	45.498755
4716.000000	45.557891
4714.000000	45.618671
4712.000000	45.680853
4710.000000	45.742870
4708.000000	45.803127
4706.000000	45.865236
4704.000000	45.927752
4702.000000	45.991075
4700.000000	46.052732
4698.000000	46.114345
4696.000000	46.175287
4694.000000	46.236718
4692.000000	46.296626
4690.000000	46.355453
4688.000000	46.412288
4686.000000	46.471352
4684.000000	46.532510
4682.000000	46.593628
4680.000000	46.652228
4678.000000	46.711991
4676.000000	46.771678
4674.000000	46.832648
4672.000000	46.893438
4670.000000	46.953802
4668.000000	47.012156
4666.000000	47.072429
4664.000000	47.132444
4662.000000	47.191924
4660.000000	47.251640
4658.000000	47.313125
4656.000000	47.372457
4654.000000	47.431756
4652.000000	47.491839
4650.000000	47.551427
4648.000000	47.608981
4646.000000	47.669469
4644.000000	47.731569
4642.000000	47.792205
4640.000000	47.849600
4638.000000	47.908471
4636.000000	47.969337
4634.000000	48.030344
4632.000000	48.088668
4630.000000	48.147269
4628.000000	48.206937
4626.000000	48.268059
4624.000000	48.329395
4622.000000	48.391539
4620.000000	48.452940
4618.000000	48.513867
4616.000000	48.574075
4614.000000	48.635786
4612.000000	48.699270
4610.000000	48.761986
4608.000000	48.822143
4606.000000	48.884928
4604.000000	48.951447
4602.000000	49.016894
4600.000000	49.078588
4598.000000	49.140378
4596.000000	49.203795
4594.000000	49.268868
4592.000000	49.332892
4590.000000	49.395883
4588.000000	49.457256
4586.000000	49.518673
4584.000000	49.580835
4582.000000	49.645349
4580.000000	49.709890
4578.000000	49.773818
4576.000000	49.835619
4574.000000	49.897483
4572.000000	49.960453
4570.000000	50.024851
4568.000000	50.087782
4566.000000	50.149109
4564.000000	50.210590
4562.000000	50.274129
4560.000000	50.336719
4558.000000	50.397682
4556.000000	50.458831
4554.000000	50.521390
4552.000000	50.581771
4550.000000	50.641044
4548.000000	50.701263
4546.000000	50.763944
4544.000000	50.826370
4542.000000	50.888316
4540.000000	50.948608
4538.000000	51.010492
4536.000000	51.072089
4534.000000	51.132924
4532.000000	51.194096
4530.000000	51.256632
4528.000000	51.317133
4526.000000	51.378976
4524.000000	51.441438
4522.000000	51.504492
4520.000000	51.568296
4518.000000	51.632731
4516.000000	51.695242
4514.000000	51.758593
4512.000000	51.821933
4510.000000	51.886673
4508.000000	51.952729
4506.000000	52.017910
4504.000000	52.080305
4502.000000	52.144725
4500.000000	52.210781
4498.000000	52.277191
4496.000000	52.342790
4494.000000	52.407730
4492.000000	52.469580
4490.000000	52.530906
4488.000000	52.593181
4486.000000	52.658268
4484.000000	52.723996
4482.000000	52.789050
4480.000000	52.851503
4478.000000	52.914014
4476.000000	52.975894
4474.000000	53.037942
4472.000000	53.100855
4470.000000	53.164962
4468.000000	53.226460
4466.000000	53.287178
4464.000000	53.348718
4462.000000	53.410482
4460.000000	53.470964
4458.000000	53.531569
4456.000000	53.591957
4454.000000	53.654276
4452.000000	53.717035
4450.000000	53.778996
4448.000000	53.839593
4446.000000	53.900103
4444.000000	53.960569
4442.000000	54.023125
4440.000000	54.085165
4438.000000	54.147286
4436.000000	54.208745
4434.000000	54.269682
4432.000000	54.330223
4430.000000	54.392877
4428.000000	54.456141
4426.000000	54.519039
4424.000000	54.579825
4422.000000	54.641644
4420.000000	54.705074
4418.000000	54.769873
4416.000000	54.833940
4414.000000	54.898037
4412.000000	54.961760
4410.000000	55.025387
4408.000000	55.087412
4406.000000	55.151498
4404.000000	55.216533
4402.000000	55.280292
4400.000000	55.341990
4398.000000	55.405378
4396.000000	55.469897
4394.000000	55.534271
4392.000000	55.596058
4390.000000	55.657256
4388.000000	55.718666
4386.000000	55.780428
4384.000000	55.840439
4382.000000	55.900585
4380.000000	55.961210
4378.000000	56.022978
4376.000000	56.084197
4374.000000	56.144042
4372.000000	56.201358
4370.000000	56.260065
4368.000000	56.319666
4366.000000	56.379417
4364.000000	56.437955
4362.000000	56.497581
4360.000000	56.558937
4358.000000	56.622153
4356.000000	56.683781
4354.000000	56.744559
4352.000000	56.805435
4350.000000	56.867510
4348.000000	56.928459
4346.000000	56.989687
4344.000000	57.051235
4342.000000	57.114400
4340.000000	57.177985
4338.000000	57.240707
4336.000000	57.302201
4334.000000	57.366102
4332.000000	57.430885
4330.000000	57.495039
4328.000000	57.557493
4326.000000	57.621727
4324.000000	57.688813
4322.000000	57.757570
4320.000000	57.824546
4318.000000	57.889801
4316.000000	57.954272
4314.000000	58.021018
4312.000000	58.087207
4310.000000	58.152762
4308.000000	58.218361
4306.000000	58.284761
4304.000000	58.350702
4302.000000	58.417829
4300.000000	58.483519
4298.000000	58.547890
4296.000000	58.611647
4294.000000	58.676745
4292.000000	58.740925
4290.000000	58.803911
4288.000000	58.866370
4286.000000	58.929986
4284.000000	58.990621
4282.000000	59.048717
4280.000000	59.106782
4278.000000	59.166696
4276.000000	59.225598
4274.000000	59.283926
4272.000000	59.342541
4270.000000	59.403300
4268.000000	59.462885
4266.000000	59.521256
4264.000000	59.580128
4262.000000	59.640523
4260.000000	59.701077
4258.000000	59.764010
4256.000000	59.827123
4254.000000	59.890525
4252.000000	59.954790
4250.000000	60.019876
4248.000000	60.083508
4246.000000	60.146641
4244.000000	60.208529
4242.000000	60.270580
4240.000000	60.332995
4238.000000	60.397719
4236.000000	60.462609
4234.000000	60.527650
4232.000000	60.592151
4230.000000	60.655560
4228.000000	60.717447
4226.000000	60.781967
4224.000000	60.847587
4222.000000	60.912979
4220.000000	60.976258
4218.000000	61.038814
4216.000000	61.102022
4214.000000	61.167171
4212.000000	61.231840
4210.000000	61.297905
4208.000000	61.363909
4206.000000	61.430217
4204.000000	61.497617
4202.000000	61.565258
4200.000000	61.630913
4198.000000	61.699218
4196.000000	61.767831
4194.000000	61.833492
4192.000000	61.898333
4190.000000	61.967131
4188.000000	62.036546
4186.000000	62.103346
4184.000000	62.168643
4182.000000	62.237036
4180.000000	62.303741
4178.000000	62.366545
4176.000000	62.428158
4174.000000	62.492337
4172.000000	62.557982
4170.000000	62.623920
4168.000000	62.687521
4166.000000	62.750834
4164.000000	62.814080
4162.000000	62.877641
4160.000000	62.940091
4158.000000	63.002607
4156.000000	63.065624
4154.000000	63.130812
4152.000000	63.195460
4150.000000	63.260351
4148.000000	63.325224
4146.000000	63.389437
4144.000000	63.452834
4142.000000	63.518028
4140.000000	63.583212
4138.000000	63.648530
4136.000000	63.712877
4134.000000	63.777864
4132.000000	63.843668
4130.000000	63.909352
4128.000000	63.973869
4126.000000	64.040366
4124.000000	64.106671
4122.000000	64.172015
4120.000000	64.237538
4118.000000	64.304722
4116.000000	64.370928
4114.000000	64.436402
4112.000000	64.502331
4110.000000	64.568638
4108.000000	64.630143
4106.000000	64.690780
4104.000000	64.755491
4102.000000	64.821727
4100.000000	64.885491
4098.000000	64.948955
4096.000000	65.011314
4094.000000	65.074593
4092.000000	65.139934
4090.000000	65.206760
4088.000000	65.274138
4086.000000	65.344960
4084.000000	65.416339
4082.000000	65.485251
4080.000000	65.550971
4078.000000	65.616951
4076.000000	65.683087
4074.000000	65.748378
4072.000000	65.814104
4070.000000	65.881023
4068.000000	65.944420
4066.000000	66.007448
4064.000000	66.071433
4062.000000	66.134418
4060.000000	66.197155
4058.000000	66.263221
4056.000000	66.329262
4054.000000	66.394072
4052.000000	66.458634
4050.000000	66.524036
4048.000000	66.587321
4046.000000	66.648459
4044.000000	66.711493
4042.000000	66.779268
4040.000000	66.846726
4038.000000	66.913052
4036.000000	66.978596
4034.000000	67.045637
4032.000000	67.113414
4030.000000	67.179872
4028.000000	67.243610
4026.000000	67.309784
4024.000000	67.379456
4022.000000	67.447977
4020.000000	67.513891
4018.000000	67.582948
4016.000000	67.652615
4014.000000	67.720473
4012.000000	67.787752
4010.000000	67.855340
4008.000000	67.923504
4006.000000	67.994366
4004.000000	68.065161
4002.000000	68.135525
4000.000000	68.201967
3998.000000	68.262987
3996.000000	68.323732
3994.000000	68.387255
3992.000000	68.449742
3990.000000	68.515510
3988.000000	68.585286
3986.000000	68.651681
3984.000000	68.711839
3982.000000	68.774491
3980.000000	68.839837
3978.000000	68.898983
3976.000000	68.952526
3974.000000	69.011366
3972.000000	69.075277
3970.000000	69.142149
3968.000000	69.209556
3966.000000	69.269720
3964.000000	69.319653
3962.000000	69.373698
3960.000000	69.438156
3958.000000	69.505714
3956.000000	69.569224
3954.000000	69.622443
3952.000000	69.657652
3950.000000	69.690723
3948.000000	69.750151
3946.000000	69.817620
3944.000000	69.865712
3942.000000	69.937749
3940.000000	70.043381
3938.000000	70.131121
3936.000000	70.165479
3934.000000	70.161655
3932.000000	70.195509
3930.000000	70.297824
3928.000000	70.389969
3926.000000	70.439854
3924.000000	70.497097
3922.000000	70.550359
3920.000000	70.558266
3918.000000	70.587491
3916.000000	70.716680
3914.000000	70.886695
3912.000000	71.004782
3910.000000	71.058070
3908.000000	71.001729
3906.000000	70.811947
3904.000000	70.650908
3902.000000	70.670115
3900.000000	70.861633
3898.000000	71.156609
3896.000000	71.374660
3894.000000	71.356619
3892.000000	71.283285
3890.000000	71.355030
3888.000000	71.358411
3886.000000	71.305568
3884.000000	71.430522
3882.000000	71.575348
3880.000000	71.699497
3878.000000	71.861661
3876.000000	71.905965
3874.000000	71.807611
3872.000000	71.606747
3870.000000	71.539655
3868.000000	71.731932
3866.000000	71.889417
3864.000000	72.001540
3862.000000	72.214338
3860.000000	72.392325
3858.000000	72.171143
3856.000000	71.350932
3854.000000	70.775484
3852.000000	71.294230
3850.000000	72.274721
3848.000000	72.820274
3846.000000	72.901002
3844.000000	72.815373
3842.000000	72.643739
3840.000000	72.312052
3838.000000	72.151948
3836.000000	72.457816
3834.000000	72.866790
3832.000000	73.118889
3830.000000	73.307381
3828.000000	73.427782
3826.000000	73.450450
3824.000000	73.272158
3822.000000	73.044237
3820.000000	73.056687
3818.000000	73.049601
3816.000000	73.110822
3814.000000	73.571812
3812.000000	73.986684
3810.000000	73.938953
3808.000000	73.694469
3806.000000	73.672723
3804.000000	73.607506
3802.000000	73.449502
3800.000000	73.701758
3798.000000	74.123922
3796.000000	74.381836
3794.000000	74.588538
3792.000000	74.736211
3790.000000	74.807984
3788.000000	74.839246
3786.000000	74.859131
3784.000000	74.893221
3782.000000	74.892556
3780.000000	74.886410
3778.000000	75.000653
3776.000000	75.164026
3774.000000	75.210203
3772.000000	75.102209
3770.000000	75.027776
3768.000000	75.108968
3766.000000	75.248018
3764.000000	75.374860
3762.000000	75.393891
3760.000000	75.346319
3758.000000	75.390160
3756.000000	75.319761
3754.000000	74.836339
3752.000000	74.299948
3750.000000	74.314159
3748.000000	74.542268
3746.000000	74.375031
3744.000000	74.515537
3742.000000	75.295372
3740.000000	75.722206
3738.000000	75.529641
3736.000000	75.331432
3734.000000	75.427052
3732.000000	75.746843
3730.000000	76.128211
3728.000000	76.306818
3726.000000	76.339329
3724.000000	76.406633
3722.000000	76.518460
3720.000000	76.662390
3718.000000	76.788265
3716.000000	76.746396
3714.000000	76.448120
3712.000000	76.246593
3710.000000	76.462469
3708.000000	76.864171
3706.000000	77.113607
3704.000000	77.127017
3702.000000	77.111283
3700.000000	77.243986
3698.000000	77.400706
3696.000000	77.453662
3694.000000	77.347825
3692.000000	77.003610
3690.000000	76.609579
3688.000000	76.714365
3686.000000	77.288973
3684.000000	77.690223
3682.000000	77.744766
3680.000000	77.552314
3678.000000	77.064990
3676.000000	76.706063
3674.000000	76.849768
3672.000000	76.965613
3670.000000	77.081550
3668.000000	77.560202
3666.000000	78.013071
3664.000000	78.189379
3662.000000	78.225344
3660.000000	78.148203
3658.000000	77.935878
3656.000000	77.855237
3654.000000	77.877201
3652.000000	77.562089
3650.000000	77.186019
3648.000000	77.360024
3646.000000	77.905926
3644.000000	78.297887
3642.000000	78.436218
3640.000000	78.474760
3638.000000	78.481837
3636.000000	78.451373
3634.000000	78.354144
3632.000000	78.014205
3630.000000	77.572253
3628.000000	77.679065
3626.000000	78.211990
3624.000000	78.482389
3622.000000	78.347787
3620.000000	78.138118
3618.000000	78.174464
3616.000000	78.303288
3614.000000	78.295427
3612.000000	78.218199
3610.000000	78.165856
3608.000000	78.263774
3606.000000	78.485915
3604.000000	78.613429
3602.000000	78.607872
3600.000000	78.579367
3598.000000	78.556514
3596.000000	78.526958
3594.000000	78.539089
3592.000000	78.528906
3590.000000	78.370656
3588.000000	78.239864
3586.000000	78.354900
3584.000000	78.557675
3582.000000	78.651529
3580.000000	78.664417
3578.000000	78.662956
3576.000000	78.660694
3574.000000	78.660667
3572.000000	78.614653
3570.000000	78.444963
3568.000000	78.273592
3566.000000	78.313809
3564.000000	78.476811
3562.000000	78.573218
3560.000000	78.604746
3558.000000	78.623725
3556.000000	78.617379
3554.000000	78.577834
3552.000000	78.554470
3550.000000	78.544025
3548.000000	78.490758
3546.000000	78.449562
3544.000000	78.485146
3542.000000	78.544377
3540.000000	78.560795
3538.000000	78.536789
3536.000000	78.515522
3534.000000	78.508225
3532.000000	78.478600
3530.000000	78.420488
3528.000000	78.366018
3526.000000	78.325946
3524.000000	78.294681
3522.000000	78.285834
3520.000000	78.284306
3518.000000	78.268414
3516.000000	78.241784
3514.000000	78.202266
3512.000000	78.146269
3510.000000	78.093856
3508.000000	78.060099
3506.000000	78.006792
3504.000000	77.929350
3502.000000	77.885727
3500.000000	77.868794
3498.000000	77.830270
3496.000000	77.778437
3494.000000	77.734016
3492.000000	77.688428
3490.000000	77.633918
3488.000000	77.581718
3486.000000	77.541961
3484.000000	77.501906
3482.000000	77.467800
3480.000000	77.459705
3478.000000	77.466411
3476.000000	77.469970
3474.000000	77.474376
3472.000000	77.483465
3470.000000	77.491851
3468.000000	77.506033
3466.000000	77.537567
3464.000000	77.577399
3462.000000	77.616674
3460.000000	77.659569
3458.000000	77.701402
3456.000000	77.736273
3454.000000	77.766449
3452.000000	77.790520
3450.000000	77.796481
3448.000000	77.794526
3446.000000	77.822177
3444.000000	77.875456
3442.000000	77.937777
3440.000000	78.013550
3438.000000	78.100690
3436.000000	78.201206
3434.000000	78.322820
3432.000000	78.462249
3430.000000	78.603568
3428.000000	78.742221
3426.000000	78.876836
3424.000000	78.995603
3422.000000	79.099509
3420.000000	79.208965
3418.000000	79.322967
3416.000000	79.422914
3414.000000	79.506008
3412.000000	79.578691
3410.000000	79.644682
3408.000000	79.707795
3406.000000	79.767559
3404.000000	79.818518
3402.000000	79.864903
3400.000000	79.922371
3398.000000	79.997400
3396.000000	80.077840
3394.000000	80.147187
3392.000000	80.214862
3390.000000	80.295693
3388.000000	80.374279
3386.000000	80.437070
3384.000000	80.496958
3382.000000	80.558904
3380.000000	80.616512
3378.000000	80.669678
3376.000000	80.721621
3374.000000	80.771512
3372.000000	80.811777
3370.000000	80.843064
3368.000000	80.882101
3366.000000	80.933461
3364.000000	80.987644
3362.000000	81.040271
3360.000000	81.090257
3358.000000	81.134658
3356.000000	81.177125
3354.000000	81.220464
3352.000000	81.262375
3350.000000	81.305345
3348.000000	81.354053
3346.000000	81.402997
3344.000000	81.446096
3342.000000	81.485680
3340.000000	81.523038
3338.000000	81.559393
3336.000000	81.603344
3334.000000	81.652766
3332.000000	81.699339
3330.000000	81.740880
3328.000000	81.778051
3326.000000	81.813029
3324.000000	81.853330
3322.000000	81.898296
3320.000000	81.940504
3318.000000	81.978032
3316.000000	82.013298
3314.000000	82.047692
3312.000000	82.080506
3310.000000	82.108722
3308.000000	82.135445
3306.000000	82.168573
3304.000000	82.214457
3302.000000	82.265851
3300.000000	82.310462
3298.000000	82.348138
3296.000000	82.383134
3294.000000	82.414948
3292.000000	82.449318
3290.000000	82.493265
3288.000000	82.541280
3286.000000	82.583847
3284.000000	82.624345
3282.000000	82.665835
3280.000000	82.704555
3278.000000	82.741559
3276.000000	82.776996
3274.000000	82.812340
3272.000000	82.852460
3270.000000	82.900312
3268.000000	82.952494
3266.000000	83.000145
3264.000000	83.045674
3262.000000	83.091203
3260.000000	83.136913
3258.000000	83.181820
3256.000000	83.226694
3254.000000	83.274286
3252.000000	83.326878
3250.000000	83.379264
3248.000000	83.425306
3246.000000	83.468112
3244.000000	83.521062
3242.000000	83.578332
3240.000000	83.631198
3238.000000	83.683663
3236.000000	83.732585
3234.000000	83.775724
3232.000000	83.826042
3230.000000	83.885024
3228.000000	83.943093
3226.000000	83.997389
3224.000000	84.048390
3222.000000	84.095140
3220.000000	84.143382
3218.000000	84.193178
3216.000000	84.241407
3214.000000	84.293046
3212.000000	84.347973
3210.000000	84.402540
3208.000000	84.463315
3206.000000	84.529927
3204.000000	84.599954
3202.000000	84.669587
3200.000000	84.738069
3198.000000	84.809347
3196.000000	84.887816
3194.000000	84.965389
3192.000000	85.039465
3190.000000	85.112675
3188.000000	85.184634
3186.000000	85.254570
3184.000000	85.327072
3182.000000	85.400909
3180.000000	85.471328
3178.000000	85.541921
3176.000000	85.618393
3174.000000	85.695172
3172.000000	85.769454
3170.000000	85.843217
3168.000000	85.917083
3166.000000	85.991751
3164.000000	86.070096
3162.000000	86.149396
3160.000000	86.229071
3158.000000	86.309494
3156.000000	86.388074
3154.000000	86.459054
3152.000000	86.531730
3150.000000	86.617295
3148.000000	86.705280
3146.000000	86.784983
3144.000000	86.859011
3142.000000	86.931576
3140.000000	87.004312
3138.000000	87.078376
3136.000000	87.151264
3134.000000	87.217544
3132.000000	87.286179
3130.000000	87.357073
3128.000000	87.423447
3126.000000	87.484998
3124.000000	87.544706
3122.000000	87.598580
3120.000000	87.649382
3118.000000	87.700183
3116.000000	87.757711
3114.000000	87.826138
3112.000000	87.889370
3110.000000	87.941002
3108.000000	87.996219
3106.000000	88.057982
3104.000000	88.117140
3102.000000	88.173357
3100.000000	88.238489
3098.000000	88.307957
3096.000000	88.376362
3094.000000	88.445570
3092.000000	88.513161
3090.000000	88.578107
3088.000000	88.639332
3086.000000	88.691206
3084.000000	88.738682
3082.000000	88.781244
3080.000000	88.819365
3078.000000	88.860637
3076.000000	88.907508
3074.000000	88.945136
3072.000000	88.965566
3070.000000	88.976829
3068.000000	88.987650
3066.000000	89.007774
3064.000000	89.047352
3062.000000	89.098923
3060.000000	89.152397
3058.000000	89.207689
3056.000000	89.271242
3054.000000	89.338434
3052.000000	89.398262
3050.000000	89.451289
3048.000000	89.503845
3046.000000	89.549115
3044.000000	89.582662
3042.000000	89.611041
3040.000000	89.640528
3038.000000	89.664832
3036.000000	89.679028
3034.000000	89.681905
3032.000000	89.672348
3030.000000	89.644511
3028.000000	89.584353
3026.000000	89.482048
3024.000000	89.358912
3022.000000	89.247838
3020.000000	89.187947
3018.000000	89.217733
3016.000000	89.356682
3014.000000	89.587956
3012.000000	89.870486
3010.000000	90.148009
3008.000000	90.376101
3006.000000	90.538713
3004.000000	90.652279
3002.000000	90.732843
3000.000000	90.791601
2998.000000	90.834084
2996.000000	90.865918
2994.000000	90.888081
2992.000000	90.901219
2990.000000	90.904216
2988.000000	90.892376
2986.000000	90.861919
2984.000000	90.809867
2982.000000	90.728843
2980.000000	90.614263
2978.000000	90.456006
2976.000000	90.237901
2974.000000	89.941168
2972.000000	89.558364
2970.000000	89.089846
2968.000000	88.578136
2966.000000	88.105411
2964.000000	87.758114
2962.000000	87.591434
2960.000000	87.608190
2958.000000	87.751670
2956.000000	87.943627
2954.000000	88.126731
2952.000000	88.272496
2950.000000	88.347426
2948.000000	88.316141
2946.000000	88.159538
2944.000000	87.875885
2942.000000	87.478036
2940.000000	86.999780
2938.000000	86.498578
2936.000000	86.038210
2934.000000	85.630131
2932.000000	85.241422
2930.000000	84.859549
2928.000000	84.539938
2926.000000	84.380320
2924.000000	84.485736
2922.000000	84.900916
2920.000000	85.568277
2918.000000	86.370769
2916.000000	87.206856
2914.000000	87.995173
2912.000000	88.677408
2910.000000	89.223435
2908.000000	89.648096
2906.000000	89.991621
2904.000000	90.290709
2902.000000	90.563390
2900.000000	90.818634
2898.000000	91.057133
2896.000000	91.280799
2894.000000	91.493887
2892.000000	91.698309
2890.000000	91.887044
2888.000000	92.049058
2886.000000	92.176574
2884.000000	92.267675
2882.000000	92.314992
2880.000000	92.316003
2878.000000	92.266547
2876.000000	92.158814
2874.000000	91.983953
2872.000000	91.738613
2870.000000	91.392808
2868.000000	90.920959
2866.000000	90.360378
2864.000000	89.830794
2862.000000	89.484520
2860.000000	89.412878
2858.000000	89.578181
2856.000000	89.874810
2854.000000	90.227769
2852.000000	90.637692
2850.000000	91.138673
2848.000000	91.734159
2846.000000	92.346092
2844.000000	92.881778
2842.000000	93.309539
2840.000000	93.645057
2838.000000	93.913234
2836.000000	94.134466
2834.000000	94.317185
2832.000000	94.472945
2830.000000	94.609375
2828.000000	94.732223
2826.000000	94.841979
2824.000000	94.944028
2822.000000	95.037752
2820.000000	95.125217
2818.000000	95.204014
2816.000000	95.274930
2814.000000	95.341258
2812.000000	95.403795
2810.000000	95.459342
2808.000000	95.511543
2806.000000	95.561937
2804.000000	95.609418
2802.000000	95.652967
2800.000000	95.697781
2798.000000	95.742357
2796.000000	95.785852
2794.000000	95.828828
2792.000000	95.878587
2790.000000	95.935961
2788.000000	96.006298
2786.000000	96.087990
2784.000000	96.175269
2782.000000	96.257150
2780.000000	96.333568
2778.000000	96.400726
2776.000000	96.461198
2774.000000	96.521484
2772.000000	96.580597
2770.000000	96.633070
2768.000000	96.684788
2766.000000	96.736037
2764.000000	96.787400
2762.000000	96.835912
2760.000000	96.883503
2758.000000	96.928966
2756.000000	96.971795
2754.000000	97.012845
2752.000000	97.054897
2750.000000	97.095220
2748.000000	97.135051
2746.000000	97.173486
2744.000000	97.211127
2742.000000	97.247008
2740.000000	97.284264
2738.000000	97.320445
2736.000000	97.357373
2734.000000	97.392866
2732.000000	97.427519
2730.000000	97.462728
2728.000000	97.499223
2726.000000	97.532202
2724.000000	97.565134
2722.000000	97.598324
2720.000000	97.634073
2718.000000	97.668538
2716.000000	97.699463
2714.000000	97.726800
2712.000000	97.754913
2710.000000	97.778904
2708.000000	97.802753
2706.000000	97.831066
2704.000000	97.864599
2702.000000	97.902813
2700.000000	97.947541
2698.000000	97.993436
2696.000000	98.041332
2694.000000	98.087435
2692.000000	98.130448
2690.000000	98.173708
2688.000000	98.218836
2686.000000	98.259989
2684.000000	98.300897
2682.000000	98.340182
2680.000000	98.376253
2678.000000	98.410380
2676.000000	98.446580
2674.000000	98.480004
2672.000000	98.513089
2670.000000	98.544680
2668.000000	98.574205
2666.000000	98.603251
2664.000000	98.635821
2662.000000	98.666871
2660.000000	98.696339
2658.000000	98.726278
2656.000000	98.760978
2654.000000	98.798626
2652.000000	98.841303
2650.000000	98.885111
2648.000000	98.928451
2646.000000	98.966443
2644.000000	99.002581
2642.000000	99.039006
2640.000000	99.077152
2638.000000	99.113698
2636.000000	99.150472
2634.000000	99.184316
2632.000000	99.218876
2630.000000	99.248761
2628.000000	99.276320
2626.000000	99.305006
2624.000000	99.335201
2622.000000	99.363519
2620.000000	99.393759
2618.000000	99.423527
2616.000000	99.451191
2614.000000	99.476659
2612.000000	99.503396
2610.000000	99.525995
2608.000000	99.546162
2606.000000	99.564511
2604.000000	99.583305
2602.000000	99.598702
2600.000000	99.611296
2598.000000	99.620139
2596.000000	99.631385
2594.000000	99.648254
2592.000000	99.673375
2590.000000	99.707092
2588.000000	99.750947
2586.000000	99.802299
2584.000000	99.861611
2582.000000	99.923219
2580.000000	99.984925
2578.000000	100.042890
2576.000000	100.098430
2574.000000	100.146659
2572.000000	100.190641
2570.000000	100.232906
2568.000000	100.273250
2566.000000	100.308420
2564.000000	100.342716
2562.000000	100.373302
2560.000000	100.405084
2558.000000	100.435501
2556.000000	100.464688
2554.000000	100.491493
2552.000000	100.518615
2550.000000	100.545514
2548.000000	100.574405
2546.000000	100.601057
2544.000000	100.627939
2542.000000	100.653474
2540.000000	100.681635
2538.000000	100.710490
2536.000000	100.738586
2534.000000	100.763765
2532.000000	100.790788
2530.000000	100.817613
2528.000000	100.844386
2526.000000	100.868790
2524.000000	100.894980
2522.000000	100.921661
2520.000000	100.949360
2518.000000	100.974385
2516.000000	100.998621
2514.000000	101.021007
2512.000000	101.047284
2510.000000	101.071522
2508.000000	101.091724
2506.000000	101.111295
2504.000000	101.135058
2502.000000	101.156006
2500.000000	101.180248
2498.000000	101.207839
2496.000000	101.237244
2494.000000	101.263660
2492.000000	101.288772
2490.000000	101.313150
2488.000000	101.343088
2486.000000	101.372368
2484.000000	101.400225
2482.000000	101.424906
2480.000000	101.453737
2478.000000	101.481658
2476.000000	101.504699
2474.000000	101.523985
2472.000000	101.546208
2470.000000	101.567348
2468.000000	101.587504
2466.000000	101.603245
2464.000000	101.620209
2462.000000	101.638392
2460.000000	101.657052
2458.000000	101.673728
2456.000000	101.691517
2454.000000	101.708470
2452.000000	101.727487
2450.000000	101.747038
2448.000000	101.766569
2446.000000	101.782120
2444.000000	101.799035
2442.000000	101.815603
2440.000000	101.833708
2438.000000	101.849040
2436.000000	101.865382
2434.000000	101.878208
2432.000000	101.891345
2430.000000	101.903780
2428.000000	101.917977
2426.000000	101.934232
2424.000000	101.954159
2422.000000	101.970827
2420.000000	101.985870
2418.000000	101.999670
2416.000000	102.013725
2414.000000	102.023566
2412.000000	102.036140
2410.000000	102.049617
2408.000000	102.066248
2406.000000	102.081219
2404.000000	102.096238
2402.000000	102.110182
2400.000000	102.127852
2398.000000	102.146760
2396.000000	102.167217
2394.000000	102.186934
2392.000000	102.206884
2390.000000	102.222485
2388.000000	102.235706
2386.000000	102.240462
2384.000000	102.232343
2382.000000	102.194933
2380.000000	102.118228
2378.000000	101.993385
2376.000000	101.816916
2374.000000	101.586953
2372.000000	101.318806
2370.000000	101.032495
2368.000000	100.762531
2366.000000	100.537858
2364.000000	100.388650
2362.000000	100.339053
2360.000000	100.403223
2358.000000	100.577032
2356.000000	100.857949
2354.000000	101.222312
2352.000000	101.628514
2350.000000	101.926346
2348.000000	101.914144
2346.000000	101.649331
2344.000000	101.367588
2342.000000	101.166819
2340.000000	101.053683
2338.000000	101.003120
2336.000000	101.001429
2334.000000	101.036615
2332.000000	101.106929
2330.000000	101.207333
2328.000000	101.333258
2326.000000	101.469944
2324.000000	101.612716
2322.000000	101.752739
2320.000000	101.886723
2318.000000	102.007297
2316.000000	102.116976
2314.000000	102.211822
2312.000000	102.295271
2310.000000	102.366033
2308.000000	102.426085
2306.000000	102.473669
2304.000000	102.515813
2302.000000	102.549133
2300.000000	102.577666
2298.000000	102.600655
2296.000000	102.623234
2294.000000	102.642552
2292.000000	102.662146
2290.000000	102.676686
2288.000000	102.690118
2286.000000	102.702104
2284.000000	102.711207
2282.000000	102.711879
2280.000000	102.712902
2278.000000	102.711812
2276.000000	102.708639
2274.000000	102.702486
2272.000000	102.697371
2270.000000	102.691931
2268.000000	102.691357
2266.000000	102.688463
2264.000000	102.687205
2262.000000	102.686255
2260.000000	102.686850
2258.000000	102.686132
2256.000000	102.688322
2254.000000	102.689848
2252.000000	102.696570
2250.000000	102.705925
2248.000000	102.718859
2246.000000	102.728481
2244.000000	102.741068
2242.000000	102.753311
2240.000000	102.769000
2238.000000	102.783481
2236.000000	102.799680
2234.000000	102.814264
2232.000000	102.831709
2230.000000	102.846381
2228.000000	102.860107
2226.000000	102.872260
2224.000000	102.887102
2222.000000	102.897045
2220.000000	102.906022
2218.000000	102.915945
2216.000000	102.925721
2214.000000	102.929823
2212.000000	102.938023
2210.000000	102.945690
2208.000000	102.952430
2206.000000	102.958375
2204.000000	102.969084
2202.000000	102.974422
2200.000000	102.979708
2198.000000	102.983274
2196.000000	102.988236
2194.000000	102.990527
2192.000000	102.995778
2190.000000	102.997939
2188.000000	103.001128
2186.000000	103.001882
2184.000000	103.005079
2182.000000	103.006144
2180.000000	103.008088
2178.000000	103.007624
2176.000000	103.008686
2174.000000	103.001250
2172.000000	102.979887
2170.000000	102.955727
2168.000000	102.968407
2166.000000	102.993424
2164.000000	103.005619
2162.000000	103.007362
2160.000000	103.009527
2158.000000	103.010757
2156.000000	103.014300
2154.000000	103.013159
2152.000000	103.013810
2150.000000	103.011654
2148.000000	103.013694
2146.000000	103.014749
2144.000000	103.016925
2142.000000	103.015492
2140.000000	103.016100
2138.000000	103.014954
2136.000000	103.016077
2134.000000	103.015751
2132.000000	103.017328
2130.000000	103.018449
2128.000000	103.019048
2126.000000	103.018296
2124.000000	103.022174
2122.000000	103.024329
2120.000000	103.028437
2118.000000	103.033616
2116.000000	103.041870
2114.000000	103.050853
2112.000000	103.063359
2110.000000	103.075359
2108.000000	103.090760
2106.000000	103.105897
2104.000000	103.120361
2102.000000	103.132116
2100.000000	103.146589
2098.000000	103.159612
2096.000000	103.176560
2094.000000	103.188342
2092.000000	103.201368
2090.000000	103.213732
2088.000000	103.235787
2086.000000	103.254045
2084.000000	103.274130
2082.000000	103.289818
2080.000000	103.309221
2078.000000	103.322780
2076.000000	103.341356
2074.000000	103.358885
2072.000000	103.382001
2070.000000	103.401024
2068.000000	103.416778
2066.000000	103.426130
2064.000000	103.453291
2062.000000	103.484941
2060.000000	103.513023
2058.000000	103.536161
2056.000000	103.559223
2054.000000	103.578986
2052.000000	103.603157
2050.000000	103.622860
2048.000000	103.645272
2046.000000	103.664909
2044.000000	103.681599
2042.000000	103.692096
2040.000000	103.716120
2038.000000	103.739801
2036.000000	103.758084
2034.000000	103.767706
2032.000000	103.771309
2030.000000	103.757653
2028.000000	103.768136
2026.000000	103.803571
2024.000000	103.829043
2022.000000	103.838468
2020.000000	103.836089
2018.000000	103.824826
2016.000000	103.850911
2014.000000	103.895937
2012.000000	103.927417
2010.000000	103.944584
2008.000000	103.962070
2006.000000	103.977292
2004.000000	103.993151
2002.000000	104.001269
2000.000000	104.007340
1998.000000	104.010312
1996.000000	104.011277
1994.000000	103.971099
1992.000000	103.935136
1990.000000	103.965986
1988.000000	104.000860
1986.000000	104.015893
1984.000000	104.020804
1982.000000	104.012566
1980.000000	104.004027
1978.000000	103.991019
1976.000000	103.977162
1974.000000	103.961777
1972.000000	103.946745
1970.000000	103.908508
1968.000000	103.851088
1966.000000	103.836621
1964.000000	103.849493
1962.000000	103.798235
1960.000000	103.680586
1958.000000	103.653183
1956.000000	103.736005
1954.000000	103.762183
1952.000000	103.745417
1950.000000	103.717164
1948.000000	103.695286
1946.000000	103.647822
1944.000000	103.552481
1942.000000	103.513255
1940.000000	103.588213
1938.000000	103.613713
1936.000000	103.598527
1934.000000	103.571187
1932.000000	103.549294
1930.000000	103.522148
1928.000000	103.496213
1926.000000	103.438876
1924.000000	103.343466
1922.000000	103.287752
1920.000000	103.187059
1918.000000	103.057613
1916.000000	103.160216
1914.000000	103.232585
1912.000000	103.175332
1910.000000	103.083322
1908.000000	103.047008
1906.000000	103.025565
1904.000000	102.990404
1902.000000	102.937181
1900.000000	102.895503
1898.000000	102.831936
1896.000000	102.763419
1894.000000	102.732685
1892.000000	102.680705
1890.000000	102.569421
1888.000000	102.611492
1886.000000	102.675398
1884.000000	102.677670
1882.000000	102.663673
1880.000000	102.650321
1878.000000	102.624715
1876.000000	102.606797
1874.000000	102.570259
1872.000000	102.425255
1870.000000	102.125943
1868.000000	102.093409
1866.000000	102.306688
1864.000000	102.418577
1862.000000	102.402889
1860.000000	102.372799
1858.000000	102.344498
1856.000000	102.326161
1854.000000	102.290511
1852.000000	102.253290
1850.000000	102.175090
1848.000000	102.024203
1846.000000	101.600275
1844.000000	101.338141
1842.000000	101.700492
1840.000000	101.947430
1838.000000	101.898865
1836.000000	101.852673
1834.000000	101.782598
1832.000000	101.519075
1830.000000	101.252641
1828.000000	101.310885
1826.000000	101.278590
1824.000000	101.293610
1822.000000	101.412062
1820.000000	101.400152
1818.000000	101.314498
1816.000000	101.254535
1814.000000	101.161510
1812.000000	100.992057
1810.000000	100.886163
1808.000000	100.881565
1806.000000	100.820665
1804.000000	100.649136
1802.000000	100.379345
1800.000000	100.242029
1798.000000	100.251512
1796.000000	100.126144
1794.000000	99.605392
1792.000000	99.316031
1790.000000	99.632812
1788.000000	99.803664
1786.000000	99.601656
1784.000000	99.464056
1782.000000	99.374396
1780.000000	99.276105
1778.000000	99.230385
1776.000000	98.950974
1774.000000	98.200091
1772.000000	97.825347
1770.000000	98.181087
1768.000000	98.387791
1766.000000	98.585374
1764.000000	98.437797
1762.000000	98.085871
1760.000000	98.118159
1758.000000	98.044969
1756.000000	97.913884
1754.000000	97.712428
1752.000000	97.059987
1750.000000	96.833745
1748.000000	97.024665
1746.000000	97.086900
1744.000000	96.949323
1742.000000	96.619308
1740.000000	96.296700
1738.000000	96.265490
1736.000000	95.454384
1734.000000	94.618812
1732.000000	95.406711
1730.000000	96.165805
1728.000000	96.354369
1726.000000	96.347960
1724.000000	96.253572
1722.000000	96.088781
1720.000000	95.300689
1718.000000	94.208367
1716.000000	94.416514
1714.000000	95.225816
1712.000000	95.625709
1710.000000	95.575543
1708.000000	95.267309
1706.000000	94.888234
1704.000000	94.684493
1702.000000	93.660546
1700.000000	92.890292
1698.000000	93.168889
1696.000000	93.091879
1694.000000	94.051618
1692.000000	94.903096
1690.000000	94.848712
1688.000000	94.415642
1686.000000	93.017059
1684.000000	92.484649
1682.000000	93.736490
1680.000000	94.459745
1678.000000	94.298896
1676.000000	93.696527
1674.000000	93.685169
1672.000000	93.738695
1670.000000	93.365226
1668.000000	93.585666
1666.000000	93.915686
1664.000000	93.613114
1662.000000	93.457359
1660.000000	93.682985
1658.000000	93.590907
1656.000000	92.430274
1654.000000	90.256427
1652.000000	90.396121
1650.000000	92.104252
1648.000000	91.999933
1646.000000	91.681601
1644.000000	92.319101
1642.000000	92.688910
1640.000000	92.463545
1638.000000	91.657542
1636.000000	90.710157
1634.000000	91.106608
1632.000000	91.779870
1630.000000	91.622708
1628.000000	91.225969
1626.000000	90.821487
1624.000000	90.218028
1622.000000	89.899732
1620.000000	89.533475
1618.000000	88.394596
1616.000000	87.879699
1614.000000	88.221143
1612.000000	87.893702
1610.000000	87.267614
1608.000000	86.951689
1606.000000	86.999821
1604.000000	87.198961
1602.000000	87.446527
1600.000000	87.689945
1598.000000	87.896735
1596.000000	88.041237
1594.000000	88.159366
1592.000000	88.233280
1590.000000	88.243163
1588.000000	88.210057
1586.000000	88.146609
1584.000000	88.072753
1582.000000	88.021722
1580.000000	87.861897
1578.000000	87.012630
1576.000000	86.405233
1574.000000	87.185100
1572.000000	87.438077
1570.000000	86.987576
1568.000000	87.045836
1566.000000	87.121306
1564.000000	86.816820
1562.000000	85.645238
1560.000000	83.726758
1558.000000	83.737581
1556.000000	85.107821
1554.000000	85.880928
1552.000000	86.469553
1550.000000	86.804277
1548.000000	86.985662
1546.000000	86.833836
1544.000000	86.411518
1542.000000	85.654655
1540.000000	85.237499
1538.000000	86.476810
1536.000000	87.714750
1534.000000	87.747016
1532.000000	88.059891
1530.000000	88.379491
1528.000000	88.193650
1526.000000	87.896765
1524.000000	87.517948
1522.000000	86.814109
1520.000000	86.937637
1518.000000	87.314956
1516.000000	87.312652
1514.000000	87.310236
1512.000000	87.108342
1510.000000	86.548115
1508.000000	85.123870
1506.000000	84.386778
1504.000000	84.923127
1502.000000	84.297182
1500.000000	81.818137
1498.000000	78.450471
1496.000000	75.949355
1494.000000	75.675428
1492.000000	76.765009
1490.000000	78.448761
1488.000000	80.410675
1486.000000	82.064764
1484.000000	83.150829
1482.000000	83.661208
1480.000000	83.898741
1478.000000	83.792120
1476.000000	83.374260
1474.000000	82.745702
1472.000000	82.560457
1470.000000	82.951184
1468.000000	82.867644
1466.000000	82.219900
1464.000000	81.831213
1462.000000	81.621665
1460.000000	80.589703
1458.000000	78.734153
1456.000000	77.740151
1454.000000	77.660380
1452.000000	77.289652
1450.000000	77.351533
1448.000000	78.152944
1446.000000	79.159860
1444.000000	79.679769
1442.000000	79.802983
1440.000000	79.666339
1438.000000	79.154314
1436.000000	79.093221
1434.000000	79.678520
1432.000000	79.810831
1430.000000	79.733925
1428.000000	79.787231
1426.000000	79.803762
1424.000000	79.679473
1422.000000	79.401477
1420.000000	78.769706
1418.000000	78.740450
1416.000000	79.050942
1414.000000	78.987043
1412.000000	78.641055
1410.000000	78.124992
1408.000000	77.371415
1406.000000	76.526496
1404.000000	76.060962
1402.000000	76.091486
1400.000000	76.271406
1398.000000	76.681602
1396.000000	77.037447
1394.000000	77.362118
1392.000000	77.762483
1390.000000	77.774418
1388.000000	77.407286
1386.000000	77.160378
1384.000000	77.125151
1382.000000	77.242648
1380.000000	77.336605
1378.000000	77.275022
1376.000000	77.090559
1374.000000	76.938995
1372.000000	76.939743
1370.000000	76.866123
1368.000000	76.710761
1366.000000	76.549939
1364.000000	76.286239
1362.000000	76.087766
1360.000000	76.029695
1358.000000	75.927490
1356.000000	75.738951
1354.000000	75.537187
1352.000000	75.335461
1350.000000	75.123206
1348.000000	74.908375
1346.000000	74.686264
1344.000000	74.441252
1342.000000	74.151572
1340.000000	73.870791
1338.000000	73.740674
1336.000000	73.694209
1334.000000	73.615333
1332.000000	73.469414
1330.000000	73.278419
1328.000000	73.056100
1326.000000	72.817956
1324.000000	72.557328
1322.000000	72.270853
1320.000000	71.957909
1318.000000	71.660410
1316.000000	71.374553
1314.000000	71.071625
1312.000000	70.762068
1310.000000	70.453864
1308.000000	70.130111
1306.000000	69.804880
1304.000000	69.468369
1302.000000	69.126804
1300.000000	68.783309
1298.000000	68.441207
1296.000000	68.090990
1294.000000	67.729223
1292.000000	67.346846
1290.000000	66.954246
1288.000000	66.554309
1286.000000	66.158721
1284.000000	65.752476
1282.000000	65.325797
1280.000000	64.871393
1278.000000	64.386850
1276.000000	63.851591
1274.000000	63.240460
1272.000000	62.513130
1270.000000	61.632177
1268.000000	60.532246
1266.000000	59.217801
1264.000000	57.851106
1262.000000	56.753305
1260.000000	56.202502
1258.000000	56.209419
1256.000000	56.501701
1254.000000	56.749256
1252.000000	56.750851
1250.000000	56.511876
1248.000000	56.119475
1246.000000	55.652809
1244.000000	55.149458
1242.000000	54.638868
1240.000000	54.132585
1238.000000	53.643904
1236.000000	53.170156
1234.000000	52.710888
1232.000000	52.258318
1230.000000	51.814016
1228.000000	51.371806
1226.000000	50.924591
1224.000000	50.465426
1222.000000	49.997654
1220.000000	49.511331
1218.000000	49.004892
1216.000000	48.482294
1214.000000	47.968916
1212.000000	47.479234
1210.000000	47.027770
1208.000000	46.612927
1206.000000	46.219341
1204.000000	45.824095
1202.000000	45.428945
1200.000000	45.037052
1198.000000	44.650693
1196.000000	44.260948
1194.000000	43.860289
1192.000000	43.442440
1190.000000	43.013805
1188.000000	42.574137
1186.000000	42.107037
1184.000000	41.527504
1182.000000	40.804283
1180.000000	40.242130
1178.000000	39.995884
1176.000000	39.764775
1174.000000	39.409634
1172.000000	38.984132
1170.000000	38.537109
1168.000000	38.072952
1166.000000	37.602196
1164.000000	37.131857
1162.000000	36.671519
1160.000000	36.217572
1158.000000	35.782142
1156.000000	35.361799
1154.000000	34.947469
1152.000000	34.524857
1150.000000	34.105574
1148.000000	33.678081
1146.000000	33.240392
1144.000000	32.811399
1142.000000	32.434088
1140.000000	32.124166
1138.000000	31.813828
1136.000000	31.452486
1134.000000	31.058046
1132.000000	30.645425
1130.000000	30.221870
1128.000000	29.799898
1126.000000	29.384293
1124.000000	28.958506
1122.000000	28.521928
1120.000000	28.074289
1118.000000	27.621075
1116.000000	27.157515
1114.000000	26.689585
1112.000000	26.223180
1110.000000	25.763423
1108.000000	25.311304
1106.000000	24.879612
1104.000000	24.464863
1102.000000	24.056926
1100.000000	23.646326
1098.000000	23.240262
1096.000000	22.843387
1094.000000	22.461866
1092.000000	22.096729
1090.000000	21.748390
1088.000000	21.406588
1086.000000	21.068957
1084.000000	20.725370
1082.000000	20.371799
1080.000000	20.033319
1078.000000	19.730359
1076.000000	19.455143
1074.000000	19.221727
1072.000000	19.008557
1070.000000	18.788354
1068.000000	18.558891
1066.000000	18.329178
1064.000000	18.097741
1062.000000	17.864020
1060.000000	17.617237
1058.000000	17.330360
1056.000000	16.941948
1054.000000	16.431393
1052.000000	15.927036
1050.000000	15.631242
1048.000000	15.599991
1046.000000	15.681510
1044.000000	15.680292
1042.000000	15.565273
1040.000000	15.381653
1038.000000	15.170159
1036.000000	14.944716
1034.000000	14.709227
1032.000000	14.460365
1030.000000	14.201821
1028.000000	13.938033
1026.000000	13.672183
1024.000000	13.400953
1022.000000	13.133936
1020.000000	12.881221
1018.000000	12.650657
1016.000000	12.439410
1014.000000	12.249934
1012.000000	12.079148
1010.000000	11.919719
1008.000000	11.755671
1006.000000	11.581255
1004.000000	11.390066
1002.000000	11.177591
1000.000000	10.947810
