PE IR       SUBTECH     SPECTRUM    ASCII       PEDS        4.00        
   -1
TE110A_092_80K_AFTER_150K_BG.ASC
20/05/14
16:39:57.00
20/05/14
16:39:57.00
Administrator
TE110A.Thursday, May 14 2020, 002.
1000.000000
#HDR
-1
-1
#GR
cm-1
EGY
1.0
0.0
6000.000000
-2.000000
2501
8
105.188020
11.042976
#DATA
6000.000000	16.438641
5998.000000	16.471716
5996.000000	16.504740
5994.000000	16.536962
5992.000000	16.567773
5990.000000	16.599849
5988.000000	16.631799
5986.000000	16.664885
5984.000000	16.697510
5982.000000	16.729916
5980.000000	16.762774
5978.000000	16.796158
5976.000000	16.829069
5974.000000	16.862804
5972.000000	16.895758
5970.000000	16.928694
5968.000000	16.960848
5966.000000	16.994072
5964.000000	17.027251
5962.000000	17.061774
5960.000000	17.095786
5958.000000	17.129891
5956.000000	17.162908
5954.000000	17.194845
5952.000000	17.227060
5950.000000	17.261127
5948.000000	17.294854
5946.000000	17.327926
5944.000000	17.360299
5942.000000	17.393239
5940.000000	17.426040
5938.000000	17.460408
5936.000000	17.494168
5934.000000	17.527854
5932.000000	17.559908
5930.000000	17.592751
5928.000000	17.626422
5926.000000	17.660952
5924.000000	17.694137
5922.000000	17.727612
5920.000000	17.761913
5918.000000	17.796960
5916.000000	17.832754
5914.000000	17.869713
5912.000000	17.906274
5910.000000	17.942085
5908.000000	17.976691
5906.000000	18.012034
5904.000000	18.047751
5902.000000	18.083579
5900.000000	18.118943
5898.000000	18.155217
5896.000000	18.192035
5894.000000	18.228103
5892.000000	18.262650
5890.000000	18.297654
5888.000000	18.332610
5886.000000	18.369060
5884.000000	18.404518
5882.000000	18.440002
5880.000000	18.474352
5878.000000	18.509749
5876.000000	18.545359
5874.000000	18.580525
5872.000000	18.615635
5870.000000	18.651186
5868.000000	18.687427
5866.000000	18.724103
5864.000000	18.759492
5862.000000	18.795639
5860.000000	18.830979
5858.000000	18.867717
5856.000000	18.905442
5854.000000	18.943844
5852.000000	18.981295
5850.000000	19.019105
5848.000000	19.057415
5846.000000	19.097387
5844.000000	19.137084
5842.000000	19.177145
5840.000000	19.216819
5838.000000	19.257398
5836.000000	19.297183
5834.000000	19.337244
5832.000000	19.377408
5830.000000	19.419336
5828.000000	19.461243
5826.000000	19.502910
5824.000000	19.543180
5822.000000	19.583486
5820.000000	19.622952
5818.000000	19.662817
5816.000000	19.702392
5814.000000	19.741681
5812.000000	19.780896
5810.000000	19.821030
5808.000000	19.861512
5806.000000	19.902255
5804.000000	19.941995
5802.000000	19.981768
5800.000000	20.021485
5798.000000	20.061972
5796.000000	20.101407
5794.000000	20.140575
5792.000000	20.179334
5790.000000	20.219641
5788.000000	20.260973
5786.000000	20.302496
5784.000000	20.343192
5782.000000	20.383644
5780.000000	20.423301
5778.000000	20.464207
5776.000000	20.505807
5774.000000	20.547500
5772.000000	20.588371
5770.000000	20.629237
5768.000000	20.669273
5766.000000	20.710209
5764.000000	20.750976
5762.000000	20.792925
5760.000000	20.834247
5758.000000	20.875006
5756.000000	20.915061
5754.000000	20.955749
5752.000000	20.996512
5750.000000	21.038552
5748.000000	21.080216
5746.000000	21.121400
5744.000000	21.160266
5742.000000	21.199921
5740.000000	21.239446
5738.000000	21.279838
5736.000000	21.318998
5734.000000	21.358737
5732.000000	21.397602
5730.000000	21.436520
5728.000000	21.475642
5726.000000	21.516884
5724.000000	21.558583
5722.000000	21.600213
5720.000000	21.641122
5718.000000	21.682979
5716.000000	21.724306
5714.000000	21.766733
5712.000000	21.809584
5710.000000	21.853649
5708.000000	21.897113
5706.000000	21.940073
5704.000000	21.982767
5702.000000	22.025898
5700.000000	22.069213
5698.000000	22.113126
5696.000000	22.156763
5694.000000	22.201091
5692.000000	22.245115
5690.000000	22.290659
5688.000000	22.335700
5686.000000	22.380465
5684.000000	22.424020
5682.000000	22.468737
5680.000000	22.513375
5678.000000	22.558026
5676.000000	22.601207
5674.000000	22.645391
5672.000000	22.690445
5670.000000	22.736003
5668.000000	22.780422
5666.000000	22.824610
5664.000000	22.868235
5662.000000	22.912773
5660.000000	22.957538
5658.000000	23.003372
5656.000000	23.048197
5654.000000	23.092430
5652.000000	23.135979
5650.000000	23.180578
5648.000000	23.225469
5646.000000	23.270278
5644.000000	23.315030
5642.000000	23.360971
5640.000000	23.406293
5638.000000	23.450635
5636.000000	23.493985
5634.000000	23.538342
5632.000000	23.582853
5630.000000	23.627777
5628.000000	23.672486
5626.000000	23.716933
5624.000000	23.760267
5622.000000	23.804353
5620.000000	23.849363
5618.000000	23.895022
5616.000000	23.939840
5614.000000	23.985236
5612.000000	24.029689
5610.000000	24.073514
5608.000000	24.117200
5606.000000	24.161908
5604.000000	24.207100
5602.000000	24.252925
5600.000000	24.298719
5598.000000	24.345907
5596.000000	24.392074
5594.000000	24.437578
5592.000000	24.481672
5590.000000	24.526355
5588.000000	24.571616
5586.000000	24.618142
5584.000000	24.664314
5582.000000	24.711434
5580.000000	24.758157
5578.000000	24.805987
5576.000000	24.852544
5574.000000	24.898330
5572.000000	24.943567
5570.000000	24.990942
5568.000000	25.038236
5566.000000	25.085046
5564.000000	25.131055
5562.000000	25.178234
5560.000000	25.225139
5558.000000	25.271670
5556.000000	25.316849
5554.000000	25.362805
5552.000000	25.409368
5550.000000	25.457696
5548.000000	25.505906
5546.000000	25.553461
5544.000000	25.599439
5542.000000	25.645604
5540.000000	25.690961
5538.000000	25.737373
5536.000000	25.784256
5534.000000	25.832306
5532.000000	25.879466
5530.000000	25.926273
5528.000000	25.972773
5526.000000	26.018964
5524.000000	26.063781
5522.000000	26.109199
5520.000000	26.154768
5518.000000	26.202168
5516.000000	26.250007
5514.000000	26.298326
5512.000000	26.343116
5510.000000	26.385991
5508.000000	26.429863
5506.000000	26.478248
5504.000000	26.528539
5502.000000	26.578580
5500.000000	26.626644
5498.000000	26.671819
5496.000000	26.711875
5494.000000	26.752292
5492.000000	26.796191
5490.000000	26.846885
5488.000000	26.900840
5486.000000	26.957471
5484.000000	27.012803
5482.000000	27.063463
5480.000000	27.103886
5478.000000	27.137844
5476.000000	27.177579
5474.000000	27.230563
5472.000000	27.289027
5470.000000	27.341973
5468.000000	27.388294
5466.000000	27.433764
5464.000000	27.476810
5462.000000	27.521916
5460.000000	27.571819
5458.000000	27.627199
5456.000000	27.682431
5454.000000	27.733073
5452.000000	27.776779
5450.000000	27.814548
5448.000000	27.850878
5446.000000	27.893226
5444.000000	27.939300
5442.000000	27.993390
5440.000000	28.048442
5438.000000	28.097434
5436.000000	28.142876
5434.000000	28.187868
5432.000000	28.231360
5430.000000	28.275760
5428.000000	28.329888
5426.000000	28.396796
5424.000000	28.460308
5422.000000	28.515238
5420.000000	28.563843
5418.000000	28.598423
5416.000000	28.620515
5414.000000	28.646899
5412.000000	28.693309
5410.000000	28.759785
5408.000000	28.828229
5406.000000	28.890620
5404.000000	28.945453
5402.000000	28.997361
5400.000000	29.042584
5398.000000	29.077291
5396.000000	29.107896
5394.000000	29.154376
5392.000000	29.216743
5390.000000	29.278201
5388.000000	29.324516
5386.000000	29.369624
5384.000000	29.425609
5382.000000	29.483185
5380.000000	29.523961
5378.000000	29.558064
5376.000000	29.604330
5374.000000	29.668837
5372.000000	29.735293
5370.000000	29.794206
5368.000000	29.844248
5366.000000	29.890596
5364.000000	29.937467
5362.000000	29.989790
5360.000000	30.043402
5358.000000	30.086997
5356.000000	30.118166
5354.000000	30.154984
5352.000000	30.206548
5350.000000	30.262670
5348.000000	30.301043
5346.000000	30.336265
5344.000000	30.383560
5342.000000	30.435773
5340.000000	30.483234
5338.000000	30.535444
5336.000000	30.600977
5334.000000	30.668308
5332.000000	30.722736
5330.000000	30.768765
5328.000000	30.815627
5326.000000	30.872074
5324.000000	30.934653
5322.000000	30.993787
5320.000000	31.045314
5318.000000	31.093540
5316.000000	31.141893
5314.000000	31.191843
5312.000000	31.238457
5310.000000	31.279907
5308.000000	31.324170
5306.000000	31.377875
5304.000000	31.435790
5302.000000	31.490369
5300.000000	31.541771
5298.000000	31.594641
5296.000000	31.645029
5294.000000	31.688355
5292.000000	31.728813
5290.000000	31.776705
5288.000000	31.832133
5286.000000	31.889346
5284.000000	31.942513
5282.000000	31.996713
5280.000000	32.051665
5278.000000	32.107966
5276.000000	32.163343
5274.000000	32.215313
5272.000000	32.261807
5270.000000	32.305783
5268.000000	32.343717
5266.000000	32.379257
5264.000000	32.422255
5262.000000	32.483920
5260.000000	32.551590
5258.000000	32.606510
5256.000000	32.652311
5254.000000	32.702489
5252.000000	32.751297
5250.000000	32.793592
5248.000000	32.834763
5246.000000	32.888684
5244.000000	32.953786
5242.000000	33.019955
5240.000000	33.081015
5238.000000	33.134649
5236.000000	33.184101
5234.000000	33.231564
5232.000000	33.278966
5230.000000	33.325240
5228.000000	33.366455
5226.000000	33.412167
5224.000000	33.469368
5222.000000	33.532773
5220.000000	33.590114
5218.000000	33.644885
5216.000000	33.701309
5214.000000	33.756260
5212.000000	33.799244
5210.000000	33.829326
5208.000000	33.862426
5206.000000	33.918528
5204.000000	33.991537
5202.000000	34.061121
5200.000000	34.114750
5198.000000	34.165093
5196.000000	34.218882
5194.000000	34.276630
5192.000000	34.330649
5190.000000	34.381378
5188.000000	34.429362
5186.000000	34.479835
5184.000000	34.534651
5182.000000	34.593642
5180.000000	34.650988
5178.000000	34.706962
5176.000000	34.762226
5174.000000	34.816626
5172.000000	34.868875
5170.000000	34.922573
5168.000000	34.976916
5166.000000	35.030778
5164.000000	35.083431
5162.000000	35.138127
5160.000000	35.192413
5158.000000	35.245212
5156.000000	35.298817
5154.000000	35.355969
5152.000000	35.412947
5150.000000	35.468501
5148.000000	35.521562
5146.000000	35.574052
5144.000000	35.625340
5142.000000	35.678577
5140.000000	35.732773
5138.000000	35.787907
5136.000000	35.841712
5134.000000	35.896066
5132.000000	35.949819
5130.000000	36.003672
5128.000000	36.056921
5126.000000	36.111322
5124.000000	36.165320
5122.000000	36.218854
5120.000000	36.271210
5118.000000	36.324865
5116.000000	36.378936
5114.000000	36.433665
5112.000000	36.488458
5110.000000	36.543703
5108.000000	36.597984
5106.000000	36.652861
5104.000000	36.708149
5102.000000	36.764285
5100.000000	36.818674
5098.000000	36.873458
5096.000000	36.927768
5094.000000	36.983406
5092.000000	37.039907
5090.000000	37.097678
5088.000000	37.154140
5086.000000	37.210204
5084.000000	37.266054
5082.000000	37.323011
5080.000000	37.379268
5078.000000	37.435366
5076.000000	37.490977
5074.000000	37.547377
5072.000000	37.603819
5070.000000	37.660484
5068.000000	37.715985
5066.000000	37.772011
5064.000000	37.827668
5062.000000	37.883967
5060.000000	37.940265
5058.000000	37.997362
5056.000000	38.052484
5054.000000	38.107350
5052.000000	38.162604
5050.000000	38.219631
5048.000000	38.275679
5046.000000	38.331185
5044.000000	38.385559
5042.000000	38.440621
5040.000000	38.496578
5038.000000	38.553832
5036.000000	38.609056
5034.000000	38.663765
5032.000000	38.718069
5030.000000	38.773529
5028.000000	38.828626
5026.000000	38.885075
5024.000000	38.941548
5022.000000	38.998366
5020.000000	39.054356
5018.000000	39.110224
5016.000000	39.165402
5014.000000	39.222112
5012.000000	39.278338
5010.000000	39.334871
5008.000000	39.391615
5006.000000	39.449406
5004.000000	39.506286
5002.000000	39.563115
5000.000000	39.620049
4998.000000	39.678167
4996.000000	39.735861
4994.000000	39.793601
4992.000000	39.850967
4990.000000	39.909643
4988.000000	39.967607
4986.000000	40.025623
4984.000000	40.083123
4982.000000	40.140549
4980.000000	40.197738
4978.000000	40.256550
4976.000000	40.314773
4974.000000	40.371967
4972.000000	40.428462
4970.000000	40.486273
4968.000000	40.543490
4966.000000	40.601114
4964.000000	40.658826
4962.000000	40.716845
4960.000000	40.773336
4958.000000	40.829435
4956.000000	40.885788
4954.000000	40.943718
4952.000000	41.001209
4950.000000	41.058187
4948.000000	41.114270
4946.000000	41.171075
4944.000000	41.226827
4942.000000	41.283154
4940.000000	41.340242
4938.000000	41.398379
4936.000000	41.454478
4934.000000	41.510718
4932.000000	41.566805
4930.000000	41.623915
4928.000000	41.680636
4926.000000	41.738093
4924.000000	41.793971
4922.000000	41.849910
4920.000000	41.905966
4918.000000	41.963431
4916.000000	42.020677
4914.000000	42.078843
4912.000000	42.136771
4910.000000	42.195161
4908.000000	42.252600
4906.000000	42.310821
4904.000000	42.369525
4902.000000	42.429232
4900.000000	42.487640
4898.000000	42.546406
4896.000000	42.605427
4894.000000	42.665402
4892.000000	42.724087
4890.000000	42.782627
4888.000000	42.840977
4886.000000	42.900121
4884.000000	42.958562
4882.000000	43.017483
4880.000000	43.076774
4878.000000	43.137030
4876.000000	43.195526
4874.000000	43.252704
4872.000000	43.310198
4870.000000	43.370496
4868.000000	43.429682
4866.000000	43.488449
4864.000000	43.546906
4862.000000	43.605310
4860.000000	43.661614
4858.000000	43.718729
4856.000000	43.776205
4854.000000	43.834289
4852.000000	43.891649
4850.000000	43.950133
4848.000000	44.008337
4846.000000	44.066974
4844.000000	44.124292
4842.000000	44.181974
4840.000000	44.239281
4838.000000	44.296941
4836.000000	44.353483
4834.000000	44.411261
4832.000000	44.469091
4830.000000	44.527162
4828.000000	44.584746
4826.000000	44.643397
4824.000000	44.700868
4822.000000	44.758689
4820.000000	44.817294
4818.000000	44.876577
4816.000000	44.934732
4814.000000	44.992973
4812.000000	45.050662
4810.000000	45.109746
4808.000000	45.169221
4806.000000	45.229204
4804.000000	45.287990
4802.000000	45.348067
4800.000000	45.408206
4798.000000	45.469077
4796.000000	45.529360
4794.000000	45.589858
4792.000000	45.650588
4790.000000	45.712004
4788.000000	45.771560
4786.000000	45.830703
4784.000000	45.889859
4782.000000	45.950194
4780.000000	46.009875
4778.000000	46.070165
4776.000000	46.129445
4774.000000	46.189659
4772.000000	46.249462
4770.000000	46.309462
4768.000000	46.368673
4766.000000	46.428705
4764.000000	46.487970
4762.000000	46.547022
4760.000000	46.604948
4758.000000	46.663560
4756.000000	46.722419
4754.000000	46.782122
4752.000000	46.839718
4750.000000	46.896639
4748.000000	46.953476
4746.000000	47.012362
4744.000000	47.070791
4742.000000	47.129187
4740.000000	47.186957
4738.000000	47.246556
4736.000000	47.305843
4734.000000	47.364087
4732.000000	47.420956
4730.000000	47.479215
4728.000000	47.537291
4726.000000	47.595459
4724.000000	47.654291
4722.000000	47.714877
4720.000000	47.774756
4718.000000	47.834893
4716.000000	47.894894
4714.000000	47.956952
4712.000000	48.019553
4710.000000	48.082768
4708.000000	48.144739
4706.000000	48.207774
4704.000000	48.270440
4702.000000	48.333571
4700.000000	48.396442
4698.000000	48.460756
4696.000000	48.522796
4694.000000	48.583344
4692.000000	48.643528
4690.000000	48.705603
4688.000000	48.767254
4686.000000	48.829835
4684.000000	48.891548
4682.000000	48.952960
4680.000000	49.013600
4678.000000	49.075242
4676.000000	49.136575
4674.000000	49.197951
4672.000000	49.258044
4670.000000	49.319545
4668.000000	49.380765
4666.000000	49.441621
4664.000000	49.502698
4662.000000	49.565174
4660.000000	49.625816
4658.000000	49.686394
4656.000000	49.747248
4654.000000	49.808847
4652.000000	49.869568
4650.000000	49.930288
4648.000000	49.990047
4646.000000	50.051538
4644.000000	50.112719
4642.000000	50.173754
4640.000000	50.234443
4638.000000	50.296533
4636.000000	50.356651
4634.000000	50.416490
4632.000000	50.477440
4630.000000	50.540332
4628.000000	50.601753
4626.000000	50.662545
4624.000000	50.723171
4622.000000	50.785938
4620.000000	50.848713
4618.000000	50.911135
4616.000000	50.972964
4614.000000	51.036804
4612.000000	51.101325
4610.000000	51.167009
4608.000000	51.232136
4606.000000	51.297618
4604.000000	51.361444
4602.000000	51.425254
4600.000000	51.489922
4598.000000	51.556664
4596.000000	51.621675
4594.000000	51.685660
4592.000000	51.749127
4590.000000	51.814153
4588.000000	51.878921
4586.000000	51.943833
4584.000000	52.007726
4582.000000	52.071706
4580.000000	52.133765
4578.000000	52.195958
4576.000000	52.259492
4574.000000	52.325708
4572.000000	52.391239
4570.000000	52.456313
4568.000000	52.519214
4566.000000	52.581739
4564.000000	52.644548
4562.000000	52.708866
4560.000000	52.772016
4558.000000	52.834764
4556.000000	52.897376
4554.000000	52.961649
4552.000000	53.025422
4550.000000	53.088582
4548.000000	53.150382
4546.000000	53.213053
4544.000000	53.275490
4542.000000	53.338503
4540.000000	53.400457
4538.000000	53.462546
4536.000000	53.524250
4534.000000	53.587705
4532.000000	53.650761
4530.000000	53.713593
4528.000000	53.776192
4526.000000	53.841151
4524.000000	53.906268
4522.000000	53.970749
4520.000000	54.033617
4518.000000	54.097249
4516.000000	54.160362
4514.000000	54.224779
4512.000000	54.290000
4510.000000	54.356267
4508.000000	54.422009
4506.000000	54.488153
4504.000000	54.552956
4502.000000	54.617993
4500.000000	54.683310
4498.000000	54.749677
4496.000000	54.815181
4494.000000	54.881306
4492.000000	54.947411
4490.000000	55.013849
4488.000000	55.078213
4486.000000	55.141834
4484.000000	55.205130
4482.000000	55.270484
4480.000000	55.335665
4478.000000	55.400297
4476.000000	55.463562
4474.000000	55.528073
4472.000000	55.592365
4470.000000	55.656390
4468.000000	55.718780
4466.000000	55.781359
4464.000000	55.843236
4462.000000	55.905773
4460.000000	55.967685
4458.000000	56.030096
4456.000000	56.092369
4454.000000	56.155789
4452.000000	56.218378
4450.000000	56.280991
4448.000000	56.342992
4446.000000	56.405296
4444.000000	56.466267
4442.000000	56.527616
4440.000000	56.589108
4438.000000	56.652347
4436.000000	56.715217
4434.000000	56.778063
4432.000000	56.840288
4430.000000	56.904355
4428.000000	56.968872
4426.000000	57.033330
4424.000000	57.096762
4422.000000	57.161512
4420.000000	57.225127
4418.000000	57.289140
4416.000000	57.353873
4414.000000	57.418840
4412.000000	57.481831
4410.000000	57.545567
4408.000000	57.609748
4406.000000	57.675180
4404.000000	57.740284
4402.000000	57.806120
4400.000000	57.871075
4398.000000	57.935660
4396.000000	57.999050
4394.000000	58.062602
4392.000000	58.125371
4390.000000	58.188756
4388.000000	58.250881
4386.000000	58.312858
4384.000000	58.373712
4382.000000	58.434347
4380.000000	58.494380
4378.000000	58.555805
4376.000000	58.616876
4374.000000	58.679153
4372.000000	58.740093
4370.000000	58.799826
4368.000000	58.859053
4366.000000	58.919331
4364.000000	58.978821
4362.000000	59.039967
4360.000000	59.101386
4358.000000	59.164265
4356.000000	59.227401
4354.000000	59.290911
4352.000000	59.353879
4350.000000	59.417577
4348.000000	59.480206
4346.000000	59.544061
4344.000000	59.607393
4342.000000	59.669606
4340.000000	59.730622
4338.000000	59.794365
4336.000000	59.859900
4334.000000	59.925614
4332.000000	59.989150
4330.000000	60.053857
4328.000000	60.118995
4326.000000	60.184521
4324.000000	60.249579
4322.000000	60.315986
4320.000000	60.382606
4318.000000	60.450201
4316.000000	60.517093
4314.000000	60.584787
4312.000000	60.652719
4310.000000	60.720563
4308.000000	60.787069
4306.000000	60.854927
4304.000000	60.921647
4302.000000	60.987209
4300.000000	61.053075
4298.000000	61.119534
4296.000000	61.183873
4294.000000	61.249388
4292.000000	61.314441
4290.000000	61.377918
4288.000000	61.440135
4286.000000	61.503272
4284.000000	61.564979
4282.000000	61.625864
4280.000000	61.685173
4278.000000	61.745328
4276.000000	61.805113
4274.000000	61.865021
4272.000000	61.924081
4270.000000	61.983035
4268.000000	62.041434
4266.000000	62.102388
4264.000000	62.164488
4262.000000	62.227542
4260.000000	62.289550
4258.000000	62.351522
4256.000000	62.414197
4254.000000	62.478462
4252.000000	62.541881
4250.000000	62.606106
4248.000000	62.669808
4246.000000	62.733283
4244.000000	62.796620
4242.000000	62.860810
4240.000000	62.925264
4238.000000	62.991207
4236.000000	63.056263
4234.000000	63.121505
4232.000000	63.186569
4230.000000	63.251086
4228.000000	63.314868
4226.000000	63.380198
4224.000000	63.444468
4222.000000	63.507747
4220.000000	63.571787
4218.000000	63.637639
4216.000000	63.702461
4214.000000	63.767921
4212.000000	63.833339
4210.000000	63.898748
4208.000000	63.964533
4206.000000	64.031675
4204.000000	64.098402
4202.000000	64.166832
4200.000000	64.235959
4198.000000	64.304526
4196.000000	64.371744
4194.000000	64.440637
4192.000000	64.509979
4190.000000	64.578586
4188.000000	64.645640
4186.000000	64.712802
4184.000000	64.779533
4182.000000	64.847223
4180.000000	64.913696
4178.000000	64.978672
4176.000000	65.042831
4174.000000	65.108388
4172.000000	65.173060
4170.000000	65.236776
4168.000000	65.300207
4166.000000	65.364816
4164.000000	65.428928
4162.000000	65.493831
4160.000000	65.558447
4158.000000	65.623179
4156.000000	65.686931
4154.000000	65.751263
4152.000000	65.815614
4150.000000	65.880547
4148.000000	65.946126
4146.000000	66.013255
4144.000000	66.078634
4142.000000	66.142670
4140.000000	66.205911
4138.000000	66.271660
4136.000000	66.338346
4134.000000	66.404974
4132.000000	66.470986
4130.000000	66.537561
4128.000000	66.603457
4126.000000	66.669494
4124.000000	66.734766
4122.000000	66.801382
4120.000000	66.867444
4118.000000	66.933802
4116.000000	67.000313
4114.000000	67.067293
4112.000000	67.133547
4110.000000	67.198934
4108.000000	67.261489
4106.000000	67.324784
4104.000000	67.389591
4102.000000	67.455009
4100.000000	67.518805
4098.000000	67.583295
4096.000000	67.647283
4094.000000	67.711301
4092.000000	67.776691
4090.000000	67.844425
4088.000000	67.912213
4086.000000	67.981688
4084.000000	68.051801
4082.000000	68.121429
4080.000000	68.189605
4078.000000	68.258635
4076.000000	68.325803
4074.000000	68.390387
4072.000000	68.454183
4070.000000	68.519444
4068.000000	68.584697
4066.000000	68.650888
4064.000000	68.715006
4062.000000	68.777374
4060.000000	68.841678
4058.000000	68.909232
4056.000000	68.975679
4054.000000	69.041033
4052.000000	69.105685
4050.000000	69.170908
4048.000000	69.232516
4046.000000	69.291263
4044.000000	69.353738
4042.000000	69.424062
4040.000000	69.495467
4038.000000	69.563890
4036.000000	69.629437
4034.000000	69.695108
4032.000000	69.760996
4030.000000	69.828630
4028.000000	69.895092
4026.000000	69.961058
4024.000000	70.029376
4022.000000	70.099072
4020.000000	70.166674
4018.000000	70.235338
4016.000000	70.304795
4014.000000	70.374591
4012.000000	70.441538
4010.000000	70.505822
4008.000000	70.573104
4006.000000	70.646989
4004.000000	70.719661
4002.000000	70.789163
4000.000000	70.856034
3998.000000	70.918541
3996.000000	70.978135
3994.000000	71.040356
3992.000000	71.103515
3990.000000	71.170471
3988.000000	71.241193
3986.000000	71.308210
3984.000000	71.368563
3982.000000	71.430669
3980.000000	71.494277
3978.000000	71.552562
3976.000000	71.606019
3974.000000	71.664406
3972.000000	71.728566
3970.000000	71.795632
3968.000000	71.863631
3966.000000	71.926349
3964.000000	71.976184
3962.000000	72.028985
3960.000000	72.095240
3958.000000	72.163767
3956.000000	72.225936
3954.000000	72.276925
3952.000000	72.305311
3950.000000	72.329936
3948.000000	72.387780
3946.000000	72.454786
3944.000000	72.498552
3942.000000	72.573783
3940.000000	72.689472
3938.000000	72.783560
3936.000000	72.813645
3934.000000	72.794377
3932.000000	72.819797
3930.000000	72.931370
3928.000000	73.029553
3926.000000	73.072021
3924.000000	73.124717
3922.000000	73.176609
3920.000000	73.173335
3918.000000	73.194853
3916.000000	73.340192
3914.000000	73.534921
3912.000000	73.663242
3910.000000	73.712797
3908.000000	73.630339
3906.000000	73.386808
3904.000000	73.178190
3902.000000	73.186512
3900.000000	73.404774
3898.000000	73.750153
3896.000000	74.002343
3894.000000	73.970407
3892.000000	73.871182
3890.000000	73.941634
3888.000000	73.929908
3886.000000	73.855164
3884.000000	73.994802
3882.000000	74.157933
3880.000000	74.295965
3878.000000	74.478581
3876.000000	74.519423
3874.000000	74.388840
3872.000000	74.136328
3870.000000	74.043116
3868.000000	74.260499
3866.000000	74.438780
3864.000000	74.560205
3862.000000	74.799957
3860.000000	75.000750
3858.000000	74.729565
3856.000000	73.749037
3854.000000	73.054925
3852.000000	73.653563
3850.000000	74.802313
3848.000000	75.439784
3846.000000	75.525339
3844.000000	75.411338
3842.000000	75.196866
3840.000000	74.795745
3838.000000	74.596965
3836.000000	74.945812
3834.000000	75.415892
3832.000000	75.701593
3830.000000	75.911655
3828.000000	76.041883
3826.000000	76.058425
3824.000000	75.836143
3822.000000	75.553570
3820.000000	75.557307
3818.000000	75.540516
3816.000000	75.604265
3814.000000	76.136239
3812.000000	76.610741
3810.000000	76.541439
3808.000000	76.244698
3806.000000	76.209488
3804.000000	76.120318
3802.000000	75.923201
3800.000000	76.206640
3798.000000	76.689438
3796.000000	76.982058
3794.000000	77.214736
3792.000000	77.378022
3790.000000	77.452296
3788.000000	77.478576
3786.000000	77.491439
3784.000000	77.521653
3782.000000	77.510946
3780.000000	77.493609
3778.000000	77.618491
3776.000000	77.800119
3774.000000	77.841733
3772.000000	77.702505
3770.000000	77.604008
3768.000000	77.687429
3766.000000	77.838682
3764.000000	77.977767
3762.000000	77.989885
3760.000000	77.921215
3758.000000	77.961966
3756.000000	77.871052
3754.000000	77.293138
3752.000000	76.653497
3750.000000	76.660806
3748.000000	76.913553
3746.000000	76.697177
3744.000000	76.848922
3742.000000	77.763066
3740.000000	78.258532
3738.000000	78.011520
3736.000000	77.759639
3734.000000	77.868725
3732.000000	78.244375
3730.000000	78.682562
3728.000000	78.875721
3726.000000	78.899586
3724.000000	78.970484
3722.000000	79.095595
3720.000000	79.256110
3718.000000	79.393369
3716.000000	79.331483
3714.000000	78.966488
3712.000000	78.717575
3710.000000	78.964871
3708.000000	79.431067
3706.000000	79.713165
3704.000000	79.715620
3702.000000	79.685593
3700.000000	79.832712
3698.000000	80.008381
3696.000000	80.061868
3694.000000	79.928355
3692.000000	79.513469
3690.000000	79.040768
3688.000000	79.154522
3686.000000	79.821531
3684.000000	80.284510
3682.000000	80.338138
3680.000000	80.101828
3678.000000	79.517885
3676.000000	79.084760
3674.000000	79.243900
3672.000000	79.370414
3670.000000	79.498619
3668.000000	80.056240
3666.000000	80.584101
3664.000000	80.785373
3662.000000	80.819562
3660.000000	80.719638
3658.000000	80.461474
3656.000000	80.361124
3654.000000	80.381444
3652.000000	80.000064
3650.000000	79.546793
3648.000000	79.747275
3646.000000	80.389674
3644.000000	80.848795
3642.000000	81.006379
3640.000000	81.048127
3638.000000	81.053101
3636.000000	81.009434
3634.000000	80.886685
3632.000000	80.478217
3630.000000	79.946976
3628.000000	80.068743
3626.000000	80.700403
3624.000000	81.018420
3622.000000	80.851884
3620.000000	80.596371
3618.000000	80.636279
3616.000000	80.786219
3614.000000	80.771446
3612.000000	80.673460
3610.000000	80.605696
3608.000000	80.721512
3606.000000	80.989358
3604.000000	81.141723
3602.000000	81.131816
3600.000000	81.096310
3598.000000	81.066268
3596.000000	81.024453
3594.000000	81.035351
3592.000000	81.020570
3590.000000	80.823372
3588.000000	80.660861
3586.000000	80.799216
3584.000000	81.043498
3582.000000	81.155174
3580.000000	81.166676
3578.000000	81.162869
3576.000000	81.162443
3574.000000	81.162367
3572.000000	81.102523
3570.000000	80.892246
3568.000000	80.679182
3566.000000	80.725368
3564.000000	80.924493
3562.000000	81.041698
3560.000000	81.079423
3558.000000	81.102346
3556.000000	81.092883
3554.000000	81.043905
3552.000000	81.014905
3550.000000	80.999294
3548.000000	80.932492
3546.000000	80.882720
3544.000000	80.925718
3542.000000	80.996532
3540.000000	81.016264
3538.000000	80.986479
3536.000000	80.960396
3534.000000	80.953962
3532.000000	80.919981
3530.000000	80.850038
3528.000000	80.784924
3526.000000	80.739414
3524.000000	80.707064
3522.000000	80.700402
3520.000000	80.700656
3518.000000	80.684400
3516.000000	80.656075
3514.000000	80.612285
3512.000000	80.548701
3510.000000	80.488119
3508.000000	80.450111
3506.000000	80.391729
3504.000000	80.305633
3502.000000	80.258038
3500.000000	80.241932
3498.000000	80.202170
3496.000000	80.148733
3494.000000	80.104436
3492.000000	80.056139
3490.000000	79.994931
3488.000000	79.937623
3486.000000	79.895344
3484.000000	79.849595
3482.000000	79.808806
3480.000000	79.798503
3478.000000	79.803642
3476.000000	79.803380
3474.000000	79.806893
3472.000000	79.816390
3470.000000	79.821232
3468.000000	79.831713
3466.000000	79.861359
3464.000000	79.898839
3462.000000	79.935729
3460.000000	79.976582
3458.000000	80.017654
3456.000000	80.053341
3454.000000	80.084159
3452.000000	80.106818
3450.000000	80.107291
3448.000000	80.098377
3446.000000	80.124461
3444.000000	80.179232
3442.000000	80.241969
3440.000000	80.319480
3438.000000	80.406211
3436.000000	80.503425
3434.000000	80.623334
3432.000000	80.762973
3430.000000	80.907752
3428.000000	81.051633
3426.000000	81.188376
3424.000000	81.306100
3422.000000	81.408248
3420.000000	81.517933
3418.000000	81.635844
3416.000000	81.738062
3414.000000	81.818465
3412.000000	81.890024
3410.000000	81.957910
3408.000000	82.019378
3406.000000	82.075383
3404.000000	82.124550
3402.000000	82.168657
3400.000000	82.223583
3398.000000	82.299834
3396.000000	82.382476
3394.000000	82.449370
3392.000000	82.513695
3390.000000	82.596591
3388.000000	82.677554
3386.000000	82.740635
3384.000000	82.799269
3382.000000	82.858777
3380.000000	82.915068
3378.000000	82.967450
3376.000000	83.018991
3374.000000	83.067218
3372.000000	83.103395
3370.000000	83.129081
3368.000000	83.165572
3366.000000	83.218785
3364.000000	83.274115
3362.000000	83.323375
3360.000000	83.369696
3358.000000	83.414204
3356.000000	83.457692
3354.000000	83.501275
3352.000000	83.539398
3350.000000	83.578158
3348.000000	83.626196
3346.000000	83.673259
3344.000000	83.714678
3342.000000	83.753359
3340.000000	83.787795
3338.000000	83.821514
3336.000000	83.863810
3334.000000	83.911622
3332.000000	83.956847
3330.000000	83.995211
3328.000000	84.028092
3326.000000	84.061474
3324.000000	84.101441
3322.000000	84.143783
3320.000000	84.183131
3318.000000	84.219232
3316.000000	84.254020
3314.000000	84.287460
3312.000000	84.318613
3310.000000	84.342417
3308.000000	84.362729
3306.000000	84.390584
3304.000000	84.437038
3302.000000	84.492152
3300.000000	84.535922
3298.000000	84.569708
3296.000000	84.601961
3294.000000	84.631616
3292.000000	84.663038
3290.000000	84.706501
3288.000000	84.755712
3286.000000	84.798405
3284.000000	84.836766
3282.000000	84.874482
3280.000000	84.911469
3278.000000	84.945393
3276.000000	84.977445
3274.000000	85.011540
3272.000000	85.050329
3270.000000	85.096488
3268.000000	85.148009
3266.000000	85.196182
3264.000000	85.240537
3262.000000	85.283285
3260.000000	85.326731
3258.000000	85.369077
3256.000000	85.410681
3254.000000	85.458653
3252.000000	85.513575
3250.000000	85.563524
3248.000000	85.605240
3246.000000	85.647459
3244.000000	85.700239
3242.000000	85.756567
3240.000000	85.809085
3238.000000	85.858635
3236.000000	85.903715
3234.000000	85.944186
3232.000000	85.993558
3230.000000	86.051887
3228.000000	86.108687
3226.000000	86.162528
3224.000000	86.211832
3222.000000	86.255254
3220.000000	86.300174
3218.000000	86.350588
3216.000000	86.399523
3214.000000	86.447641
3212.000000	86.500044
3210.000000	86.554225
3208.000000	86.614119
3206.000000	86.680062
3204.000000	86.748652
3202.000000	86.816618
3200.000000	86.883084
3198.000000	86.952746
3196.000000	87.029822
3194.000000	87.107290
3192.000000	87.181949
3190.000000	87.253840
3188.000000	87.323554
3186.000000	87.393408
3184.000000	87.466730
3182.000000	87.539147
3180.000000	87.606925
3178.000000	87.675499
3176.000000	87.751969
3174.000000	87.829148
3172.000000	87.903144
3170.000000	87.975742
3168.000000	88.049585
3166.000000	88.125440
3164.000000	88.202137
3162.000000	88.278253
3160.000000	88.356523
3158.000000	88.435823
3156.000000	88.512594
3154.000000	88.582985
3152.000000	88.655689
3150.000000	88.740778
3148.000000	88.827486
3146.000000	88.905832
3144.000000	88.980055
3142.000000	89.052208
3140.000000	89.123695
3138.000000	89.195847
3136.000000	89.266155
3134.000000	89.331407
3132.000000	89.400343
3130.000000	89.469801
3128.000000	89.533173
3126.000000	89.594777
3124.000000	89.652537
3122.000000	89.701281
3120.000000	89.748359
3118.000000	89.799572
3116.000000	89.858121
3114.000000	89.923598
3112.000000	89.986367
3110.000000	90.038270
3108.000000	90.091390
3106.000000	90.153346
3104.000000	90.213669
3102.000000	90.270060
3100.000000	90.333318
3098.000000	90.399291
3096.000000	90.464617
3094.000000	90.533523
3092.000000	90.600748
3090.000000	90.661022
3088.000000	90.718188
3086.000000	90.770585
3084.000000	90.818137
3082.000000	90.859811
3080.000000	90.896337
3078.000000	90.935159
3076.000000	90.979666
3074.000000	91.015632
3072.000000	91.036234
3070.000000	91.044758
3068.000000	91.048367
3066.000000	91.062728
3064.000000	91.100186
3062.000000	91.152860
3060.000000	91.210642
3058.000000	91.266882
3056.000000	91.327437
3054.000000	91.392532
3052.000000	91.450463
3050.000000	91.500279
3048.000000	91.550439
3046.000000	91.593803
3044.000000	91.624458
3042.000000	91.648590
3040.000000	91.676386
3038.000000	91.699477
3036.000000	91.708398
3034.000000	91.705104
3032.000000	91.692455
3030.000000	91.663865
3028.000000	91.602572
3026.000000	91.497178
3024.000000	91.369574
3022.000000	91.254331
3020.000000	91.190481
3018.000000	91.216920
3016.000000	91.353931
3014.000000	91.585072
3012.000000	91.869845
3010.000000	92.151933
3008.000000	92.384383
3006.000000	92.547991
3004.000000	92.660982
3002.000000	92.742832
3000.000000	92.801655
2998.000000	92.841860
2996.000000	92.872795
2994.000000	92.894321
2992.000000	92.906212
2990.000000	92.907978
2988.000000	92.895245
2986.000000	92.862142
2984.000000	92.804369
2982.000000	92.716720
2980.000000	92.596267
2978.000000	92.432700
2976.000000	92.208513
2974.000000	91.904906
2972.000000	91.512358
2970.000000	91.031591
2968.000000	90.508732
2966.000000	90.026133
2964.000000	89.670613
2962.000000	89.498189
2960.000000	89.511524
2958.000000	89.653108
2956.000000	89.847189
2954.000000	90.032679
2952.000000	90.177340
2950.000000	90.250868
2948.000000	90.216817
2946.000000	90.052835
2944.000000	89.759610
2942.000000	89.350640
2940.000000	88.861337
2938.000000	88.350158
2936.000000	87.878823
2934.000000	87.458982
2932.000000	87.061583
2930.000000	86.672291
2928.000000	86.345128
2926.000000	86.181794
2924.000000	86.288551
2922.000000	86.707531
2920.000000	87.383066
2918.000000	88.198723
2916.000000	89.048323
2914.000000	89.848510
2912.000000	90.542244
2910.000000	91.099519
2908.000000	91.532942
2906.000000	91.882040
2904.000000	92.184133
2902.000000	92.459087
2900.000000	92.715815
2898.000000	92.954875
2896.000000	93.180944
2894.000000	93.397410
2892.000000	93.603300
2890.000000	93.790977
2888.000000	93.954238
2886.000000	94.083216
2884.000000	94.172625
2882.000000	94.217335
2880.000000	94.216371
2878.000000	94.163921
2876.000000	94.052390
2874.000000	93.872624
2872.000000	93.619881
2870.000000	93.264174
2868.000000	92.780509
2866.000000	92.206679
2864.000000	91.665960
2862.000000	91.312082
2860.000000	91.236219
2858.000000	91.403543
2856.000000	91.706634
2854.000000	92.064565
2852.000000	92.476557
2850.000000	92.981744
2848.000000	93.585895
2846.000000	94.206975
2844.000000	94.750783
2842.000000	95.184632
2840.000000	95.523740
2838.000000	95.793092
2836.000000	96.015501
2834.000000	96.199616
2832.000000	96.357151
2830.000000	96.493238
2828.000000	96.615052
2826.000000	96.725456
2824.000000	96.827628
2822.000000	96.922172
2820.000000	97.009510
2818.000000	97.086959
2816.000000	97.157795
2814.000000	97.222064
2812.000000	97.281902
2810.000000	97.336387
2808.000000	97.387985
2806.000000	97.435744
2804.000000	97.482257
2802.000000	97.525662
2800.000000	97.568188
2798.000000	97.609973
2796.000000	97.652740
2794.000000	97.695844
2792.000000	97.743506
2790.000000	97.799013
2788.000000	97.868882
2786.000000	97.951247
2784.000000	98.036718
2782.000000	98.116858
2780.000000	98.193124
2778.000000	98.261498
2776.000000	98.323554
2774.000000	98.380539
2772.000000	98.436238
2770.000000	98.489458
2768.000000	98.541159
2766.000000	98.590075
2764.000000	98.638952
2762.000000	98.685445
2760.000000	98.731152
2758.000000	98.775504
2756.000000	98.820283
2754.000000	98.861271
2752.000000	98.901223
2750.000000	98.939863
2748.000000	98.977711
2746.000000	99.013900
2744.000000	99.050917
2742.000000	99.086396
2740.000000	99.121661
2738.000000	99.155284
2736.000000	99.190251
2734.000000	99.224106
2732.000000	99.258762
2730.000000	99.292063
2728.000000	99.324735
2726.000000	99.356104
2724.000000	99.389256
2722.000000	99.422371
2720.000000	99.455776
2718.000000	99.486635
2716.000000	99.517116
2714.000000	99.544411
2712.000000	99.570306
2710.000000	99.594183
2708.000000	99.618372
2706.000000	99.643523
2704.000000	99.674144
2702.000000	99.710309
2700.000000	99.753163
2698.000000	99.798825
2696.000000	99.847168
2694.000000	99.893481
2692.000000	99.938076
2690.000000	99.979955
2688.000000	100.022148
2686.000000	100.062362
2684.000000	100.102718
2682.000000	100.139313
2680.000000	100.174666
2678.000000	100.207998
2676.000000	100.240593
2674.000000	100.271506
2672.000000	100.303404
2670.000000	100.334450
2668.000000	100.365248
2666.000000	100.394389
2664.000000	100.424376
2662.000000	100.453539
2660.000000	100.483563
2658.000000	100.511794
2656.000000	100.544049
2654.000000	100.580899
2652.000000	100.621426
2650.000000	100.660987
2648.000000	100.701570
2646.000000	100.740505
2644.000000	100.778138
2642.000000	100.812981
2640.000000	100.848749
2638.000000	100.883689
2636.000000	100.918955
2634.000000	100.952292
2632.000000	100.984287
2630.000000	101.012598
2628.000000	101.041663
2626.000000	101.068825
2624.000000	101.096601
2622.000000	101.123802
2620.000000	101.152068
2618.000000	101.178984
2616.000000	101.206930
2614.000000	101.232890
2612.000000	101.258137
2610.000000	101.279240
2608.000000	101.299382
2606.000000	101.317060
2604.000000	101.331871
2602.000000	101.342588
2600.000000	101.354012
2598.000000	101.363056
2596.000000	101.374309
2594.000000	101.388968
2592.000000	101.411609
2590.000000	101.442124
2588.000000	101.484337
2586.000000	101.534434
2584.000000	101.592308
2582.000000	101.654020
2580.000000	101.717646
2578.000000	101.776953
2576.000000	101.831457
2574.000000	101.878269
2572.000000	101.922157
2570.000000	101.961845
2568.000000	101.998444
2566.000000	102.031773
2564.000000	102.066924
2562.000000	102.098214
2560.000000	102.126914
2558.000000	102.153505
2556.000000	102.181127
2554.000000	102.206501
2552.000000	102.232498
2550.000000	102.257943
2548.000000	102.285003
2546.000000	102.310674
2544.000000	102.337909
2542.000000	102.362483
2540.000000	102.386940
2538.000000	102.413072
2536.000000	102.442217
2534.000000	102.468161
2532.000000	102.494763
2530.000000	102.519936
2528.000000	102.544988
2526.000000	102.568764
2524.000000	102.594391
2522.000000	102.617494
2520.000000	102.641371
2518.000000	102.664645
2516.000000	102.688802
2514.000000	102.710911
2512.000000	102.734211
2510.000000	102.755752
2508.000000	102.777502
2506.000000	102.796887
2504.000000	102.817993
2502.000000	102.838843
2500.000000	102.862145
2498.000000	102.885311
2496.000000	102.911298
2494.000000	102.937637
2492.000000	102.965177
2490.000000	102.989805
2488.000000	103.015263
2486.000000	103.040156
2484.000000	103.067064
2482.000000	103.092278
2480.000000	103.116970
2478.000000	103.140524
2476.000000	103.164641
2474.000000	103.185530
2472.000000	103.206149
2470.000000	103.224242
2468.000000	103.241980
2466.000000	103.257833
2464.000000	103.274883
2462.000000	103.290683
2460.000000	103.306545
2458.000000	103.320890
2456.000000	103.338251
2454.000000	103.354629
2452.000000	103.372165
2450.000000	103.388516
2448.000000	103.406483
2446.000000	103.422437
2444.000000	103.437836
2442.000000	103.450383
2440.000000	103.465536
2438.000000	103.480942
2436.000000	103.496498
2434.000000	103.507589
2432.000000	103.520268
2430.000000	103.532003
2428.000000	103.543366
2426.000000	103.554502
2424.000000	103.571439
2422.000000	103.587197
2420.000000	103.602516
2418.000000	103.614703
2416.000000	103.627431
2414.000000	103.638046
2412.000000	103.649704
2410.000000	103.660676
2408.000000	103.673605
2406.000000	103.685807
2404.000000	103.701779
2402.000000	103.717545
2400.000000	103.732344
2398.000000	103.746056
2396.000000	103.764633
2394.000000	103.781792
2392.000000	103.799476
2390.000000	103.814054
2388.000000	103.827113
2386.000000	103.830242
2384.000000	103.820793
2382.000000	103.787715
2380.000000	103.722751
2378.000000	103.613376
2376.000000	103.458601
2374.000000	103.257412
2372.000000	103.024753
2370.000000	102.775808
2368.000000	102.539378
2366.000000	102.342891
2364.000000	102.214244
2362.000000	102.169053
2360.000000	102.222965
2358.000000	102.375137
2356.000000	102.621171
2354.000000	102.937991
2352.000000	103.291077
2350.000000	103.548256
2348.000000	103.535833
2346.000000	103.306038
2344.000000	103.061509
2342.000000	102.883141
2340.000000	102.781219
2338.000000	102.736118
2336.000000	102.734582
2334.000000	102.765224
2332.000000	102.827016
2330.000000	102.913195
2328.000000	103.021343
2326.000000	103.138563
2324.000000	103.260350
2322.000000	103.379623
2320.000000	103.496326
2318.000000	103.601689
2316.000000	103.696946
2314.000000	103.778400
2312.000000	103.851575
2310.000000	103.911235
2308.000000	103.962894
2306.000000	104.005428
2304.000000	104.042080
2302.000000	104.069322
2300.000000	104.092765
2298.000000	104.112247
2296.000000	104.131396
2294.000000	104.145187
2292.000000	104.158839
2290.000000	104.170570
2288.000000	104.184282
2286.000000	104.192600
2284.000000	104.197768
2282.000000	104.196984
2280.000000	104.196781
2278.000000	104.191931
2276.000000	104.187121
2274.000000	104.181474
2272.000000	104.176848
2270.000000	104.169428
2268.000000	104.164584
2266.000000	104.158009
2264.000000	104.154994
2262.000000	104.151044
2260.000000	104.150151
2258.000000	104.148003
2256.000000	104.148586
2254.000000	104.149311
2252.000000	104.154187
2250.000000	104.158595
2248.000000	104.166843
2246.000000	104.174662
2244.000000	104.184975
2242.000000	104.195130
2240.000000	104.210014
2238.000000	104.223252
2236.000000	104.238171
2234.000000	104.250849
2232.000000	104.265598
2230.000000	104.277178
2228.000000	104.289640
2226.000000	104.299655
2224.000000	104.310811
2222.000000	104.318101
2220.000000	104.327734
2218.000000	104.334887
2216.000000	104.342193
2214.000000	104.345863
2212.000000	104.351345
2210.000000	104.354110
2208.000000	104.359599
2206.000000	104.362427
2204.000000	104.367439
2202.000000	104.370645
2200.000000	104.376735
2198.000000	104.380379
2196.000000	104.384741
2194.000000	104.383463
2192.000000	104.384902
2190.000000	104.386143
2188.000000	104.387984
2186.000000	104.386073
2184.000000	104.386685
2182.000000	104.385273
2180.000000	104.385156
2178.000000	104.381892
2176.000000	104.380026
2174.000000	104.370103
2172.000000	104.347354
2170.000000	104.321555
2168.000000	104.332920
2166.000000	104.355365
2164.000000	104.365459
2162.000000	104.363355
2160.000000	104.359496
2158.000000	104.356029
2156.000000	104.359452
2154.000000	104.358083
2152.000000	104.356520
2150.000000	104.351994
2148.000000	104.350785
2146.000000	104.349405
2144.000000	104.351219
2142.000000	104.348867
2140.000000	104.347020
2138.000000	104.342046
2136.000000	104.341044
2134.000000	104.340150
2132.000000	104.341085
2130.000000	104.339088
2128.000000	104.338394
2126.000000	104.335750
2124.000000	104.337172
2122.000000	104.337192
2120.000000	104.339124
2118.000000	104.340365
2116.000000	104.343992
2114.000000	104.349540
2112.000000	104.361140
2110.000000	104.372099
2108.000000	104.384222
2106.000000	104.394192
2104.000000	104.407825
2102.000000	104.419651
2100.000000	104.432743
2098.000000	104.442995
2096.000000	104.456867
2094.000000	104.467820
2092.000000	104.478851
2090.000000	104.485730
2088.000000	104.504434
2086.000000	104.521995
2084.000000	104.540453
2082.000000	104.553915
2080.000000	104.570612
2078.000000	104.583079
2076.000000	104.600490
2074.000000	104.617007
2072.000000	104.638605
2070.000000	104.654506
2068.000000	104.668426
2066.000000	104.672271
2064.000000	104.694604
2062.000000	104.726807
2060.000000	104.754201
2058.000000	104.775452
2056.000000	104.798313
2054.000000	104.816873
2052.000000	104.839258
2050.000000	104.858341
2048.000000	104.879361
2046.000000	104.894543
2044.000000	104.908404
2042.000000	104.915697
2040.000000	104.938685
2038.000000	104.961009
2036.000000	104.976989
2034.000000	104.983950
2032.000000	104.982918
2030.000000	104.964169
2028.000000	104.975261
2026.000000	105.010428
2024.000000	105.033698
2022.000000	105.039446
2020.000000	105.033030
2018.000000	105.016028
2016.000000	105.041787
2014.000000	105.090253
2012.000000	105.120612
2010.000000	105.134487
2008.000000	105.150925
2006.000000	105.164254
2004.000000	105.177068
2002.000000	105.182781
2000.000000	105.186148
1998.000000	105.188020
1996.000000	105.187222
1994.000000	105.134216
1992.000000	105.087066
1990.000000	105.121701
1988.000000	105.162896
1986.000000	105.179007
1984.000000	105.182333
1982.000000	105.170829
1980.000000	105.158756
1978.000000	105.144030
1976.000000	105.130029
1974.000000	105.112315
1972.000000	105.094183
1970.000000	105.049776
1968.000000	104.981842
1966.000000	104.966651
1964.000000	104.984713
1962.000000	104.932417
1960.000000	104.811599
1958.000000	104.779144
1956.000000	104.858387
1954.000000	104.885572
1952.000000	104.869942
1950.000000	104.836303
1948.000000	104.807950
1946.000000	104.750112
1944.000000	104.636249
1942.000000	104.592107
1940.000000	104.684988
1938.000000	104.717424
1936.000000	104.698495
1934.000000	104.665521
1932.000000	104.641324
1930.000000	104.613397
1928.000000	104.587614
1926.000000	104.521461
1924.000000	104.408153
1922.000000	104.345429
1920.000000	104.230634
1918.000000	104.081757
1916.000000	104.206962
1914.000000	104.297558
1912.000000	104.236080
1910.000000	104.134632
1908.000000	104.101041
1906.000000	104.082877
1904.000000	104.046448
1902.000000	103.991722
1900.000000	103.947480
1898.000000	103.878245
1896.000000	103.800840
1894.000000	103.765421
1892.000000	103.705416
1890.000000	103.574844
1888.000000	103.625492
1886.000000	103.703797
1884.000000	103.707673
1882.000000	103.691236
1880.000000	103.675605
1878.000000	103.647673
1876.000000	103.629762
1874.000000	103.588333
1872.000000	103.417636
1870.000000	103.068834
1868.000000	103.033108
1866.000000	103.285383
1864.000000	103.418323
1862.000000	103.403437
1860.000000	103.370352
1858.000000	103.338306
1856.000000	103.319789
1854.000000	103.282830
1852.000000	103.245249
1850.000000	103.158190
1848.000000	102.983177
1846.000000	102.493311
1844.000000	102.194251
1842.000000	102.621976
1840.000000	102.915831
1838.000000	102.864726
1836.000000	102.813764
1834.000000	102.738871
1832.000000	102.440810
1830.000000	102.137984
1828.000000	102.210556
1826.000000	102.176303
1824.000000	102.200496
1822.000000	102.347072
1820.000000	102.338229
1818.000000	102.245558
1816.000000	102.187610
1814.000000	102.088854
1812.000000	101.899441
1810.000000	101.786683
1808.000000	101.793882
1806.000000	101.738663
1804.000000	101.547101
1802.000000	101.240451
1800.000000	101.099093
1798.000000	101.130155
1796.000000	100.996720
1794.000000	100.403717
1792.000000	100.079602
1790.000000	100.465120
1788.000000	100.681505
1786.000000	100.457849
1784.000000	100.312510
1782.000000	100.227511
1780.000000	100.128745
1778.000000	100.088089
1776.000000	99.778128
1774.000000	98.928584
1772.000000	98.506730
1770.000000	98.917040
1768.000000	99.159060
1766.000000	99.405910
1764.000000	99.250080
1762.000000	98.855560
1760.000000	98.909978
1758.000000	98.842064
1756.000000	98.711377
1754.000000	98.497194
1752.000000	97.752424
1750.000000	97.516333
1748.000000	97.770016
1746.000000	97.866986
1744.000000	97.728443
1742.000000	97.370634
1740.000000	97.018081
1738.000000	96.996121
1736.000000	96.065302
1734.000000	95.103672
1732.000000	96.024415
1730.000000	96.910014
1728.000000	97.140910
1726.000000	97.147029
1724.000000	97.043801
1722.000000	96.860636
1720.000000	95.960382
1718.000000	94.705354
1716.000000	94.950815
1714.000000	95.896263
1712.000000	96.374649
1710.000000	96.333214
1708.000000	95.989786
1706.000000	95.560321
1704.000000	95.333420
1702.000000	94.163825
1700.000000	93.289162
1698.000000	93.622525
1696.000000	93.537348
1694.000000	94.646250
1692.000000	95.626679
1690.000000	95.563969
1688.000000	95.075160
1686.000000	93.480626
1684.000000	92.871194
1682.000000	94.314122
1680.000000	95.152865
1678.000000	94.979501
1676.000000	94.297431
1674.000000	94.301162
1672.000000	94.375715
1670.000000	93.953584
1668.000000	94.220740
1666.000000	94.617561
1664.000000	94.283303
1662.000000	94.117481
1660.000000	94.393640
1658.000000	94.302101
1656.000000	92.978699
1654.000000	90.505430
1652.000000	90.693850
1650.000000	92.662341
1648.000000	92.544442
1646.000000	92.193665
1644.000000	92.948416
1642.000000	93.396063
1640.000000	93.156610
1638.000000	92.247125
1636.000000	91.179438
1634.000000	91.665497
1632.000000	92.467196
1630.000000	92.310016
1628.000000	91.883040
1626.000000	91.461436
1624.000000	90.826553
1622.000000	90.528953
1620.000000	90.168968
1618.000000	88.908589
1616.000000	88.367876
1614.000000	88.826988
1612.000000	88.538609
1610.000000	87.900945
1608.000000	87.575474
1606.000000	87.623471
1604.000000	87.821299
1602.000000	88.068036
1600.000000	88.315590
1598.000000	88.523493
1596.000000	88.658737
1594.000000	88.772906
1592.000000	88.848830
1590.000000	88.859882
1588.000000	88.827211
1586.000000	88.761438
1584.000000	88.685233
1582.000000	88.630704
1580.000000	88.446416
1578.000000	87.473887
1576.000000	86.783740
1574.000000	87.683235
1572.000000	87.975308
1570.000000	87.467117
1568.000000	87.555416
1566.000000	87.669348
1564.000000	87.350174
1562.000000	86.031774
1560.000000	83.848253
1558.000000	83.878480
1556.000000	85.442562
1554.000000	86.299763
1552.000000	86.949724
1550.000000	87.308203
1548.000000	87.495161
1546.000000	87.290813
1544.000000	86.776345
1542.000000	85.887649
1540.000000	85.392534
1538.000000	86.789660
1536.000000	88.175199
1534.000000	88.184494
1532.000000	88.534629
1530.000000	88.896615
1528.000000	88.672497
1526.000000	88.326559
1524.000000	87.898931
1522.000000	87.094972
1520.000000	87.251311
1518.000000	87.712071
1516.000000	87.743729
1514.000000	87.780773
1512.000000	87.571464
1510.000000	86.940406
1508.000000	85.336720
1506.000000	84.569658
1504.000000	85.313979
1502.000000	84.794480
1500.000000	82.269135
1498.000000	78.821758
1496.000000	76.303435
1494.000000	76.095612
1492.000000	77.176634
1490.000000	78.818050
1488.000000	80.811935
1486.000000	82.524206
1484.000000	83.649564
1482.000000	84.164305
1480.000000	84.401303
1478.000000	84.265065
1476.000000	83.779924
1474.000000	83.067950
1472.000000	82.894322
1470.000000	83.400675
1468.000000	83.355206
1466.000000	82.655677
1464.000000	82.263840
1462.000000	82.094329
1460.000000	80.986344
1458.000000	78.957220
1456.000000	77.972439
1454.000000	78.057075
1452.000000	77.744600
1450.000000	77.795737
1448.000000	78.579988
1446.000000	79.613863
1444.000000	80.155358
1442.000000	80.280714
1440.000000	80.116859
1438.000000	79.508023
1436.000000	79.426396
1434.000000	80.107470
1432.000000	80.259653
1430.000000	80.171208
1428.000000	80.234386
1426.000000	80.254689
1424.000000	80.115606
1422.000000	79.802624
1420.000000	79.077941
1418.000000	79.066071
1416.000000	79.462354
1414.000000	79.429795
1412.000000	79.080576
1410.000000	78.560314
1408.000000	77.798514
1406.000000	76.936766
1404.000000	76.466815
1402.000000	76.498959
1400.000000	76.647767
1398.000000	77.043004
1396.000000	77.384550
1394.000000	77.721746
1392.000000	78.169748
1390.000000	78.176866
1388.000000	77.767928
1386.000000	77.535669
1384.000000	77.535982
1382.000000	77.658921
1380.000000	77.749405
1378.000000	77.681595
1376.000000	77.479383
1374.000000	77.314203
1372.000000	77.329462
1370.000000	77.265989
1368.000000	77.113704
1366.000000	76.950353
1364.000000	76.659509
1362.000000	76.451901
1360.000000	76.416599
1358.000000	76.330152
1356.000000	76.140434
1354.000000	75.936605
1352.000000	75.735870
1350.000000	75.521942
1348.000000	75.305117
1346.000000	75.081369
1344.000000	74.830692
1342.000000	74.528865
1340.000000	74.232355
1338.000000	74.102027
1336.000000	74.066850
1334.000000	73.997787
1332.000000	73.852195
1330.000000	73.660799
1328.000000	73.439641
1326.000000	73.199178
1324.000000	72.934403
1322.000000	72.646390
1320.000000	72.328729
1318.000000	72.027371
1316.000000	71.738281
1314.000000	71.431038
1312.000000	71.124500
1310.000000	70.823359
1308.000000	70.499707
1306.000000	70.171627
1304.000000	69.832013
1302.000000	69.489075
1300.000000	69.143187
1298.000000	68.797700
1296.000000	68.444714
1294.000000	68.082753
1292.000000	67.698811
1290.000000	67.302020
1288.000000	66.898548
1286.000000	66.501680
1284.000000	66.092562
1282.000000	65.664235
1280.000000	65.209354
1278.000000	64.722439
1276.000000	64.181680
1274.000000	63.568225
1272.000000	62.838992
1270.000000	61.954285
1268.000000	60.851312
1266.000000	59.535078
1264.000000	58.164425
1262.000000	57.063289
1260.000000	56.511796
1258.000000	56.520319
1256.000000	56.810740
1254.000000	57.055823
1252.000000	57.057127
1250.000000	56.815405
1248.000000	56.417415
1246.000000	55.947093
1244.000000	55.438653
1242.000000	54.923401
1240.000000	54.415912
1238.000000	53.926320
1236.000000	53.448540
1234.000000	52.985774
1232.000000	52.530863
1230.000000	52.086164
1228.000000	51.641012
1226.000000	51.192340
1224.000000	50.732410
1222.000000	50.261169
1220.000000	49.768297
1218.000000	49.258104
1216.000000	48.736472
1214.000000	48.222305
1212.000000	47.728984
1210.000000	47.276444
1208.000000	46.859599
1206.000000	46.463124
1204.000000	46.065680
1202.000000	45.667389
1200.000000	45.272856
1198.000000	44.886075
1196.000000	44.493795
1194.000000	44.088513
1192.000000	43.668668
1190.000000	43.241872
1188.000000	42.800233
1186.000000	42.329950
1184.000000	41.746248
1182.000000	41.019442
1180.000000	40.453476
1178.000000	40.205473
1176.000000	39.971911
1174.000000	39.614998
1172.000000	39.189067
1170.000000	38.742647
1168.000000	38.277260
1166.000000	37.803291
1164.000000	37.330745
1162.000000	36.870002
1160.000000	36.415925
1158.000000	35.981271
1156.000000	35.560060
1154.000000	35.141729
1152.000000	34.715039
1150.000000	34.293161
1148.000000	33.862485
1146.000000	33.425704
1144.000000	32.996944
1142.000000	32.617919
1140.000000	32.306735
1138.000000	31.996220
1136.000000	31.637074
1134.000000	31.244452
1132.000000	30.829282
1130.000000	30.404924
1128.000000	29.982333
1126.000000	29.563809
1124.000000	29.134803
1122.000000	28.697696
1120.000000	28.248647
1118.000000	27.792216
1116.000000	27.327323
1114.000000	26.861188
1112.000000	26.392720
1110.000000	25.928760
1108.000000	25.473586
1106.000000	25.040788
1104.000000	24.623157
1102.000000	24.211144
1100.000000	23.797579
1098.000000	23.391527
1096.000000	22.992492
1094.000000	22.611139
1092.000000	22.246012
1090.000000	21.893766
1088.000000	21.551310
1086.000000	21.214564
1084.000000	20.866384
1082.000000	20.509131
1080.000000	20.171581
1078.000000	19.867140
1076.000000	19.590376
1074.000000	19.359221
1072.000000	19.143417
1070.000000	18.919662
1068.000000	18.689578
1066.000000	18.459935
1064.000000	18.227516
1062.000000	17.992914
1060.000000	17.745117
1058.000000	17.459274
1056.000000	17.070608
1054.000000	16.557008
1052.000000	16.048440
1050.000000	15.749854
1048.000000	15.717099
1046.000000	15.801213
1044.000000	15.804800
1042.000000	15.689422
1040.000000	15.503143
1038.000000	15.290126
1036.000000	15.062732
1034.000000	14.825482
1032.000000	14.577323
1030.000000	14.320783
1028.000000	14.055905
1026.000000	13.787421
1024.000000	13.514861
1022.000000	13.245662
1020.000000	12.989808
1018.000000	12.756848
1016.000000	12.543740
1014.000000	12.354930
1012.000000	12.184253
1010.000000	12.023856
1008.000000	11.857649
1006.000000	11.679920
1004.000000	11.484596
1002.000000	11.272875
1000.000000	11.042976
