PE IR       SUBTECH     SPECTRUM    ASCII       PEDS        4.00        
   -1
TE110A_027_80K_AFTER_100K_BG.ASC
20/05/14
12:34:02.00
20/05/14
12:34:02.00
Administrator
TE110A.Thursday, May 14 2020, 010.
1000.000000
#HDR
-1
-1
#GR
cm-1
EGY
1.0
0.0
6000.000000
-2.000000
2501
8
105.513833
11.032121
#DATA
6000.000000	16.712605
5998.000000	16.745923
5996.000000	16.777874
5994.000000	16.809726
5992.000000	16.841764
5990.000000	16.875004
5988.000000	16.908745
5986.000000	16.942241
5984.000000	16.975345
5982.000000	17.007760
5980.000000	17.040825
5978.000000	17.074586
5976.000000	17.108623
5974.000000	17.142670
5972.000000	17.176397
5970.000000	17.210775
5968.000000	17.245571
5966.000000	17.280520
5964.000000	17.314942
5962.000000	17.348306
5960.000000	17.381583
5958.000000	17.415049
5956.000000	17.447926
5954.000000	17.481439
5952.000000	17.516382
5950.000000	17.552054
5948.000000	17.587102
5946.000000	17.621107
5944.000000	17.654644
5942.000000	17.687942
5940.000000	17.721769
5938.000000	17.756504
5936.000000	17.791265
5934.000000	17.825323
5932.000000	17.858177
5930.000000	17.891185
5928.000000	17.925400
5926.000000	17.960831
5924.000000	17.996418
5922.000000	18.031932
5920.000000	18.067505
5918.000000	18.104281
5916.000000	18.141105
5914.000000	18.176813
5912.000000	18.212117
5910.000000	18.248025
5908.000000	18.284834
5906.000000	18.322138
5904.000000	18.359600
5902.000000	18.396505
5900.000000	18.433313
5898.000000	18.469739
5896.000000	18.506296
5894.000000	18.543058
5892.000000	18.578523
5890.000000	18.614826
5888.000000	18.650914
5886.000000	18.687062
5884.000000	18.723506
5882.000000	18.759081
5880.000000	18.795442
5878.000000	18.831525
5876.000000	18.867655
5874.000000	18.904161
5872.000000	18.940195
5870.000000	18.976711
5868.000000	19.013165
5866.000000	19.050533
5864.000000	19.087859
5862.000000	19.125342
5860.000000	19.162544
5858.000000	19.199643
5856.000000	19.237352
5854.000000	19.275380
5852.000000	19.314550
5850.000000	19.353681
5848.000000	19.392967
5846.000000	19.433356
5844.000000	19.474338
5842.000000	19.515130
5840.000000	19.554801
5838.000000	19.595171
5836.000000	19.637420
5834.000000	19.680164
5832.000000	19.722053
5830.000000	19.763655
5828.000000	19.805927
5826.000000	19.848334
5824.000000	19.889369
5822.000000	19.930197
5820.000000	19.970916
5818.000000	20.011827
5816.000000	20.052663
5814.000000	20.093241
5812.000000	20.134232
5810.000000	20.174572
5808.000000	20.214215
5806.000000	20.254605
5804.000000	20.296014
5802.000000	20.337327
5800.000000	20.377333
5798.000000	20.416753
5796.000000	20.457421
5794.000000	20.498987
5792.000000	20.540275
5790.000000	20.582094
5788.000000	20.623456
5786.000000	20.664709
5784.000000	20.705743
5782.000000	20.747846
5780.000000	20.789781
5778.000000	20.831313
5776.000000	20.873529
5774.000000	20.915866
5772.000000	20.957733
5770.000000	20.998849
5768.000000	21.041050
5766.000000	21.084957
5764.000000	21.128201
5762.000000	21.170338
5760.000000	21.210566
5758.000000	21.250809
5756.000000	21.292510
5754.000000	21.335084
5752.000000	21.377167
5750.000000	21.418827
5748.000000	21.460326
5746.000000	21.501465
5744.000000	21.542591
5742.000000	21.584028
5740.000000	21.625088
5738.000000	21.665324
5736.000000	21.705703
5734.000000	21.746450
5732.000000	21.787461
5730.000000	21.828005
5728.000000	21.867185
5726.000000	21.906633
5724.000000	21.947075
5722.000000	21.990529
5720.000000	22.034898
5718.000000	22.077997
5716.000000	22.120495
5714.000000	22.163663
5712.000000	22.207921
5710.000000	22.252886
5708.000000	22.296833
5706.000000	22.340574
5704.000000	22.384461
5702.000000	22.428574
5700.000000	22.473457
5698.000000	22.518460
5696.000000	22.563514
5694.000000	22.609238
5692.000000	22.654523
5690.000000	22.699603
5688.000000	22.743409
5686.000000	22.788457
5684.000000	22.834241
5682.000000	22.879667
5680.000000	22.924338
5678.000000	22.969912
5676.000000	23.016304
5674.000000	23.062933
5672.000000	23.108757
5670.000000	23.153965
5668.000000	23.198288
5666.000000	23.243304
5664.000000	23.289347
5662.000000	23.335686
5660.000000	23.381302
5658.000000	23.426109
5656.000000	23.470637
5654.000000	23.514999
5652.000000	23.560022
5650.000000	23.606414
5648.000000	23.652769
5646.000000	23.698925
5644.000000	23.745297
5642.000000	23.792070
5640.000000	23.837889
5638.000000	23.882259
5636.000000	23.926393
5634.000000	23.971473
5632.000000	24.017528
5630.000000	24.063850
5628.000000	24.109990
5626.000000	24.154430
5624.000000	24.198032
5622.000000	24.242654
5620.000000	24.288242
5618.000000	24.334455
5616.000000	24.380104
5614.000000	24.426476
5612.000000	24.473298
5610.000000	24.519809
5608.000000	24.565430
5606.000000	24.610645
5604.000000	24.656012
5602.000000	24.701574
5600.000000	24.747285
5598.000000	24.793808
5596.000000	24.840523
5594.000000	24.886618
5592.000000	24.932907
5590.000000	24.979666
5588.000000	25.026787
5586.000000	25.073746
5584.000000	25.120799
5582.000000	25.167397
5580.000000	25.213439
5578.000000	25.260138
5576.000000	25.307640
5574.000000	25.355519
5572.000000	25.403155
5570.000000	25.451724
5568.000000	25.499593
5566.000000	25.547283
5564.000000	25.595241
5562.000000	25.644280
5560.000000	25.692040
5558.000000	25.739242
5556.000000	25.786052
5554.000000	25.832805
5552.000000	25.879479
5550.000000	25.927234
5548.000000	25.976214
5546.000000	26.025781
5544.000000	26.073896
5542.000000	26.121360
5540.000000	26.167645
5538.000000	26.214101
5536.000000	26.260881
5534.000000	26.307657
5532.000000	26.354621
5530.000000	26.402352
5528.000000	26.450655
5526.000000	26.497946
5524.000000	26.543518
5522.000000	26.589449
5520.000000	26.636354
5518.000000	26.684676
5516.000000	26.733184
5514.000000	26.781264
5512.000000	26.827585
5510.000000	26.871572
5508.000000	26.917158
5506.000000	26.966056
5504.000000	27.017084
5502.000000	27.066903
5500.000000	27.115701
5498.000000	27.161741
5496.000000	27.202073
5494.000000	27.241139
5492.000000	27.284994
5490.000000	27.337126
5488.000000	27.393772
5486.000000	27.451876
5484.000000	27.508780
5482.000000	27.560018
5480.000000	27.601192
5478.000000	27.634245
5476.000000	27.674591
5474.000000	27.728605
5472.000000	27.788560
5470.000000	27.841952
5468.000000	27.889023
5466.000000	27.934666
5464.000000	27.978246
5462.000000	28.024132
5460.000000	28.076185
5458.000000	28.133116
5456.000000	28.190501
5454.000000	28.241566
5452.000000	28.284634
5450.000000	28.320248
5448.000000	28.355978
5446.000000	28.398013
5444.000000	28.444412
5442.000000	28.499510
5440.000000	28.556906
5438.000000	28.607993
5436.000000	28.653921
5434.000000	28.698356
5432.000000	28.742374
5430.000000	28.788186
5428.000000	28.844525
5426.000000	28.912528
5424.000000	28.977858
5422.000000	29.034044
5420.000000	29.082348
5418.000000	29.114967
5416.000000	29.135809
5414.000000	29.162193
5412.000000	29.210881
5410.000000	29.279635
5408.000000	29.350718
5406.000000	29.414199
5404.000000	29.469821
5402.000000	29.521696
5400.000000	29.567282
5398.000000	29.601478
5396.000000	29.631938
5394.000000	29.679114
5392.000000	29.744025
5390.000000	29.806323
5388.000000	29.851960
5386.000000	29.896811
5384.000000	29.955164
5382.000000	30.015307
5380.000000	30.055679
5378.000000	30.088223
5376.000000	30.134614
5374.000000	30.202212
5372.000000	30.273008
5370.000000	30.333618
5368.000000	30.383595
5366.000000	30.428970
5364.000000	30.477545
5362.000000	30.531944
5360.000000	30.585731
5358.000000	30.626288
5356.000000	30.654417
5354.000000	30.690829
5352.000000	30.744574
5350.000000	30.802394
5348.000000	30.840381
5346.000000	30.873866
5344.000000	30.922641
5342.000000	30.976175
5340.000000	31.023706
5338.000000	31.076228
5336.000000	31.144353
5334.000000	31.214498
5332.000000	31.268799
5330.000000	31.312139
5328.000000	31.359597
5326.000000	31.418703
5324.000000	31.485488
5322.000000	31.545868
5320.000000	31.598397
5318.000000	31.648012
5316.000000	31.697843
5314.000000	31.748784
5312.000000	31.795847
5310.000000	31.837423
5308.000000	31.881945
5306.000000	31.935651
5304.000000	31.994114
5302.000000	32.048625
5300.000000	32.100656
5298.000000	32.153944
5296.000000	32.206024
5294.000000	32.249660
5292.000000	32.289266
5290.000000	32.337338
5288.000000	32.394555
5286.000000	32.453477
5284.000000	32.507827
5282.000000	32.562703
5280.000000	32.619241
5278.000000	32.675629
5276.000000	32.730929
5274.000000	32.782352
5272.000000	32.829178
5270.000000	32.873688
5268.000000	32.911043
5266.000000	32.945352
5264.000000	32.989152
5262.000000	33.052684
5260.000000	33.121973
5258.000000	33.175943
5256.000000	33.222135
5254.000000	33.272995
5252.000000	33.322192
5250.000000	33.363151
5248.000000	33.404385
5246.000000	33.459893
5244.000000	33.527983
5242.000000	33.597265
5240.000000	33.660722
5238.000000	33.715560
5236.000000	33.764960
5234.000000	33.811212
5232.000000	33.857883
5230.000000	33.903555
5228.000000	33.944957
5226.000000	33.991021
5224.000000	34.049909
5222.000000	34.114084
5220.000000	34.171529
5218.000000	34.226354
5216.000000	34.283879
5214.000000	34.338435
5212.000000	34.380540
5210.000000	34.409862
5208.000000	34.442443
5206.000000	34.499195
5204.000000	34.575697
5202.000000	34.648546
5200.000000	34.703213
5198.000000	34.752188
5196.000000	34.806298
5194.000000	34.864687
5192.000000	34.920372
5190.000000	34.971730
5188.000000	35.019795
5186.000000	35.071218
5184.000000	35.128880
5182.000000	35.189548
5180.000000	35.246930
5178.000000	35.302443
5176.000000	35.359100
5174.000000	35.414255
5172.000000	35.467322
5170.000000	35.521558
5168.000000	35.576538
5166.000000	35.628660
5164.000000	35.679720
5162.000000	35.734795
5160.000000	35.791148
5158.000000	35.845269
5156.000000	35.899392
5154.000000	35.955691
5152.000000	36.011663
5150.000000	36.067158
5148.000000	36.123114
5146.000000	36.178319
5144.000000	36.231400
5142.000000	36.285123
5140.000000	36.339900
5138.000000	36.394572
5136.000000	36.448166
5134.000000	36.502130
5132.000000	36.556472
5130.000000	36.611087
5128.000000	36.666294
5126.000000	36.721853
5124.000000	36.776192
5122.000000	36.829176
5120.000000	36.882214
5118.000000	36.936711
5116.000000	36.990927
5114.000000	37.044838
5112.000000	37.099123
5110.000000	37.154895
5108.000000	37.210071
5106.000000	37.264568
5104.000000	37.319764
5102.000000	37.376086
5100.000000	37.432359
5098.000000	37.488381
5096.000000	37.544690
5094.000000	37.601111
5092.000000	37.656773
5090.000000	37.713517
5088.000000	37.771643
5086.000000	37.829388
5084.000000	37.885317
5082.000000	37.941205
5080.000000	37.998137
5078.000000	38.056004
5076.000000	38.113341
5074.000000	38.169979
5072.000000	38.225441
5070.000000	38.281229
5068.000000	38.337701
5066.000000	38.394808
5064.000000	38.452131
5062.000000	38.508919
5060.000000	38.564972
5058.000000	38.621336
5056.000000	38.677788
5054.000000	38.733690
5052.000000	38.789067
5050.000000	38.845937
5048.000000	38.903008
5046.000000	38.958459
5044.000000	39.013051
5042.000000	39.069136
5040.000000	39.125935
5038.000000	39.182082
5036.000000	39.237368
5034.000000	39.293334
5032.000000	39.349407
5030.000000	39.405607
5028.000000	39.460816
5026.000000	39.516483
5024.000000	39.572496
5022.000000	39.628960
5020.000000	39.684861
5018.000000	39.741294
5016.000000	39.798282
5014.000000	39.856221
5012.000000	39.913180
5010.000000	39.970236
5008.000000	40.026969
5006.000000	40.082942
5004.000000	40.138979
5002.000000	40.197273
5000.000000	40.256373
4998.000000	40.314423
4996.000000	40.372714
4994.000000	40.431565
4992.000000	40.489362
4990.000000	40.547451
4988.000000	40.606146
4986.000000	40.664246
4984.000000	40.721194
4982.000000	40.780218
4980.000000	40.840547
4978.000000	40.900303
4976.000000	40.958050
4974.000000	41.015624
4972.000000	41.072826
4970.000000	41.130092
4968.000000	41.186742
4966.000000	41.244430
4964.000000	41.302838
4962.000000	41.360661
4960.000000	41.417260
4958.000000	41.474480
4956.000000	41.532117
4954.000000	41.589959
4952.000000	41.647454
4950.000000	41.704999
4948.000000	41.761091
4946.000000	41.817183
4944.000000	41.873041
4942.000000	41.930090
4940.000000	41.987298
4938.000000	42.044441
4936.000000	42.100829
4934.000000	42.157774
4932.000000	42.215335
4930.000000	42.273632
4928.000000	42.331431
4926.000000	42.387842
4924.000000	42.443779
4922.000000	42.501139
4920.000000	42.558810
4918.000000	42.615354
4916.000000	42.671604
4914.000000	42.729314
4912.000000	42.787470
4910.000000	42.845623
4908.000000	42.903598
4906.000000	42.962344
4904.000000	43.021888
4902.000000	43.081739
4900.000000	43.140273
4898.000000	43.198076
4896.000000	43.256756
4894.000000	43.316905
4892.000000	43.377441
4890.000000	43.437873
4888.000000	43.497148
4886.000000	43.556483
4884.000000	43.616072
4882.000000	43.675671
4880.000000	43.734238
4878.000000	43.793578
4876.000000	43.852968
4874.000000	43.911202
4872.000000	43.969328
4870.000000	44.028997
4868.000000	44.088526
4866.000000	44.147102
4864.000000	44.205443
4862.000000	44.263611
4860.000000	44.321687
4858.000000	44.381213
4856.000000	44.439933
4854.000000	44.498132
4852.000000	44.556883
4850.000000	44.616005
4848.000000	44.672553
4846.000000	44.728874
4844.000000	44.786515
4842.000000	44.845795
4840.000000	44.903706
4838.000000	44.959880
4836.000000	45.016528
4834.000000	45.075035
4832.000000	45.133076
4830.000000	45.190940
4828.000000	45.249220
4826.000000	45.307096
4824.000000	45.364137
4822.000000	45.422124
4820.000000	45.480774
4818.000000	45.539635
4816.000000	45.598439
4814.000000	45.658182
4812.000000	45.717763
4810.000000	45.776885
4808.000000	45.835871
4806.000000	45.896378
4804.000000	45.957423
4802.000000	46.018412
4800.000000	46.078809
4798.000000	46.139126
4796.000000	46.198713
4794.000000	46.257527
4792.000000	46.316945
4790.000000	46.378302
4788.000000	46.439600
4786.000000	46.499620
4784.000000	46.559360
4782.000000	46.620217
4780.000000	46.680389
4778.000000	46.740253
4776.000000	46.800382
4774.000000	46.861118
4772.000000	46.920512
4770.000000	46.980257
4768.000000	47.040777
4766.000000	47.101278
4764.000000	47.159415
4762.000000	47.217222
4760.000000	47.275564
4758.000000	47.334332
4756.000000	47.392537
4754.000000	47.451914
4752.000000	47.511669
4750.000000	47.571431
4748.000000	47.629719
4746.000000	47.686796
4744.000000	47.743048
4742.000000	47.800405
4740.000000	47.858537
4738.000000	47.916934
4736.000000	47.974668
4734.000000	48.032338
4732.000000	48.090672
4730.000000	48.150162
4728.000000	48.209212
4726.000000	48.268714
4724.000000	48.328970
4722.000000	48.389754
4720.000000	48.449510
4718.000000	48.509884
4716.000000	48.570813
4714.000000	48.632482
4712.000000	48.694433
4710.000000	48.757598
4708.000000	48.821032
4706.000000	48.884235
4704.000000	48.946584
4702.000000	49.009497
4700.000000	49.072669
4698.000000	49.134997
4696.000000	49.196583
4694.000000	49.259606
4692.000000	49.322279
4690.000000	49.382469
4688.000000	49.442342
4686.000000	49.504814
4684.000000	49.567441
4682.000000	49.629428
4680.000000	49.691347
4678.000000	49.752753
4676.000000	49.812710
4674.000000	49.873473
4672.000000	49.934723
4670.000000	49.995822
4668.000000	50.056317
4666.000000	50.118061
4664.000000	50.180179
4662.000000	50.242865
4660.000000	50.304778
4658.000000	50.365820
4656.000000	50.425269
4654.000000	50.486036
4652.000000	50.547047
4650.000000	50.608024
4648.000000	50.669513
4646.000000	50.732639
4644.000000	50.794239
4642.000000	50.855138
4640.000000	50.916243
4638.000000	50.977531
4636.000000	51.037864
4634.000000	51.099266
4632.000000	51.160376
4630.000000	51.221013
4628.000000	51.282095
4626.000000	51.344686
4624.000000	51.405995
4622.000000	51.467247
4620.000000	51.528874
4618.000000	51.592140
4616.000000	51.655872
4614.000000	51.719796
4612.000000	51.783605
4610.000000	51.849054
4608.000000	51.914090
4606.000000	51.979136
4604.000000	52.044668
4602.000000	52.109780
4600.000000	52.172921
4598.000000	52.237272
4596.000000	52.303093
4594.000000	52.369117
4592.000000	52.433554
4590.000000	52.498090
4588.000000	52.562713
4586.000000	52.627884
4584.000000	52.692508
4582.000000	52.756652
4580.000000	52.819862
4578.000000	52.883952
4576.000000	52.947771
4574.000000	53.010728
4572.000000	53.074291
4570.000000	53.139219
4568.000000	53.203090
4566.000000	53.266072
4564.000000	53.328968
4562.000000	53.392628
4560.000000	53.456613
4558.000000	53.519780
4556.000000	53.581736
4554.000000	53.644693
4552.000000	53.707554
4550.000000	53.769752
4548.000000	53.831987
4546.000000	53.895109
4544.000000	53.957869
4542.000000	54.020730
4540.000000	54.083157
4538.000000	54.146468
4536.000000	54.208980
4534.000000	54.271024
4532.000000	54.333560
4530.000000	54.398125
4528.000000	54.462061
4526.000000	54.525944
4524.000000	54.589759
4522.000000	54.654597
4520.000000	54.718954
4518.000000	54.783486
4516.000000	54.848610
4514.000000	54.913641
4512.000000	54.976856
4510.000000	55.041545
4508.000000	55.107828
4506.000000	55.173944
4504.000000	55.238912
4502.000000	55.304437
4500.000000	55.369571
4498.000000	55.435334
4496.000000	55.501275
4494.000000	55.567448
4492.000000	55.632897
4490.000000	55.698634
4488.000000	55.763506
4486.000000	55.828464
4484.000000	55.893682
4482.000000	55.958585
4480.000000	56.021702
4478.000000	56.085011
4476.000000	56.148194
4474.000000	56.212621
4472.000000	56.277665
4470.000000	56.341770
4468.000000	56.403500
4466.000000	56.466474
4464.000000	56.529471
4462.000000	56.591499
4460.000000	56.652815
4458.000000	56.715686
4456.000000	56.778341
4454.000000	56.841037
4452.000000	56.902434
4450.000000	56.963858
4448.000000	57.025100
4446.000000	57.087209
4444.000000	57.149631
4442.000000	57.213175
4440.000000	57.275861
4438.000000	57.338755
4436.000000	57.401468
4434.000000	57.464269
4432.000000	57.526863
4430.000000	57.590621
4428.000000	57.653608
4426.000000	57.716715
4424.000000	57.779984
4422.000000	57.844258
4420.000000	57.908472
4418.000000	57.973781
4416.000000	58.038782
4414.000000	58.102766
4412.000000	58.165815
4410.000000	58.231100
4408.000000	58.296509
4406.000000	58.361590
4404.000000	58.426143
4402.000000	58.490438
4400.000000	58.554042
4398.000000	58.618391
4396.000000	58.682314
4394.000000	58.745766
4392.000000	58.807524
4390.000000	58.870486
4388.000000	58.934219
4386.000000	58.996738
4384.000000	59.057514
4382.000000	59.119312
4380.000000	59.180075
4378.000000	59.240538
4376.000000	59.300754
4374.000000	59.361430
4372.000000	59.421484
4370.000000	59.481719
4368.000000	59.541790
4366.000000	59.602783
4364.000000	59.662639
4362.000000	59.722610
4360.000000	59.783157
4358.000000	59.844853
4356.000000	59.907395
4354.000000	59.971492
4352.000000	60.034199
4350.000000	60.096549
4348.000000	60.159270
4346.000000	60.223207
4344.000000	60.287225
4342.000000	60.351287
4340.000000	60.413773
4338.000000	60.476964
4336.000000	60.541001
4334.000000	60.605915
4332.000000	60.669484
4330.000000	60.733526
4328.000000	60.799041
4326.000000	60.865528
4324.000000	60.930874
4322.000000	60.997223
4320.000000	61.063509
4318.000000	61.130655
4316.000000	61.198353
4314.000000	61.266162
4312.000000	61.332952
4310.000000	61.400232
4308.000000	61.467126
4306.000000	61.534204
4304.000000	61.601251
4302.000000	61.669077
4300.000000	61.735054
4298.000000	61.799324
4296.000000	61.862638
4294.000000	61.927237
4292.000000	61.993279
4290.000000	62.058923
4288.000000	62.121613
4286.000000	62.184397
4284.000000	62.246640
4282.000000	62.306833
4280.000000	62.365508
4278.000000	62.425666
4276.000000	62.486056
4274.000000	62.545023
4272.000000	62.602068
4270.000000	62.659960
4268.000000	62.718950
4266.000000	62.779461
4264.000000	62.840475
4262.000000	62.902549
4260.000000	62.964781
4258.000000	63.028712
4256.000000	63.093238
4254.000000	63.156698
4252.000000	63.219537
4250.000000	63.284508
4248.000000	63.348204
4246.000000	63.411125
4244.000000	63.474552
4242.000000	63.539029
4240.000000	63.603360
4238.000000	63.668847
4236.000000	63.734259
4234.000000	63.799525
4232.000000	63.862759
4230.000000	63.926340
4228.000000	63.991673
4226.000000	64.057916
4224.000000	64.121505
4222.000000	64.184455
4220.000000	64.248084
4218.000000	64.312793
4216.000000	64.376581
4214.000000	64.441613
4212.000000	64.508417
4210.000000	64.575461
4208.000000	64.640371
4206.000000	64.706733
4204.000000	64.775039
4202.000000	64.843137
4200.000000	64.909867
4198.000000	64.977821
4196.000000	65.046616
4194.000000	65.116038
4192.000000	65.183940
4190.000000	65.252153
4188.000000	65.320371
4186.000000	65.387730
4184.000000	65.454399
4182.000000	65.521804
4180.000000	65.587511
4178.000000	65.652680
4176.000000	65.717296
4174.000000	65.782124
4172.000000	65.846737
4170.000000	65.912222
4168.000000	65.976573
4166.000000	66.040447
4164.000000	66.103841
4162.000000	66.167730
4160.000000	66.231249
4158.000000	66.295757
4156.000000	66.360005
4154.000000	66.424139
4152.000000	66.488141
4150.000000	66.554268
4148.000000	66.620236
4146.000000	66.685058
4144.000000	66.749097
4142.000000	66.813582
4140.000000	66.877695
4138.000000	66.944071
4136.000000	67.010182
4134.000000	67.075821
4132.000000	67.142548
4130.000000	67.210397
4128.000000	67.276290
4126.000000	67.342026
4124.000000	67.407983
4122.000000	67.474608
4120.000000	67.540168
4118.000000	67.605857
4116.000000	67.671897
4114.000000	67.739933
4112.000000	67.806858
4110.000000	67.870764
4108.000000	67.932258
4106.000000	67.995727
4104.000000	68.061129
4102.000000	68.127369
4100.000000	68.192066
4098.000000	68.255458
4096.000000	68.317500
4094.000000	68.382329
4092.000000	68.449256
4090.000000	68.515979
4088.000000	68.583319
4086.000000	68.653946
4084.000000	68.723872
4082.000000	68.792277
4080.000000	68.859368
4078.000000	68.926595
4076.000000	68.993019
4074.000000	69.059915
4072.000000	69.126052
4070.000000	69.191035
4068.000000	69.255387
4066.000000	69.320515
4064.000000	69.384349
4062.000000	69.448112
4060.000000	69.512279
4058.000000	69.577955
4056.000000	69.643720
4054.000000	69.709783
4052.000000	69.775067
4050.000000	69.839500
4048.000000	69.899655
4046.000000	69.957957
4044.000000	70.022236
4042.000000	70.093843
4040.000000	70.163774
4038.000000	70.231051
4036.000000	70.297705
4034.000000	70.364544
4032.000000	70.431166
4030.000000	70.498459
4028.000000	70.562920
4026.000000	70.627829
4024.000000	70.697179
4022.000000	70.766906
4020.000000	70.833857
4018.000000	70.904235
4016.000000	70.975937
4014.000000	71.044870
4012.000000	71.109440
4010.000000	71.173080
4008.000000	71.242249
4006.000000	71.317657
4004.000000	71.390451
4002.000000	71.459582
4000.000000	71.525349
3998.000000	71.587403
3996.000000	71.647541
3994.000000	71.709887
3992.000000	71.773677
3990.000000	71.841462
3988.000000	71.911445
3986.000000	71.977138
3984.000000	72.036595
3982.000000	72.098227
3980.000000	72.163177
3978.000000	72.222191
3976.000000	72.273568
3974.000000	72.331192
3972.000000	72.396471
3970.000000	72.463247
3968.000000	72.530984
3966.000000	72.594065
3964.000000	72.642517
3962.000000	72.692325
3960.000000	72.757256
3958.000000	72.826843
3956.000000	72.890361
3954.000000	72.940402
3952.000000	72.964588
3950.000000	72.986064
3948.000000	73.044847
3946.000000	73.112925
3944.000000	73.155434
3942.000000	73.232330
3940.000000	73.353629
3938.000000	73.450350
3936.000000	73.475714
3934.000000	73.447020
3932.000000	73.468751
3930.000000	73.585769
3928.000000	73.687482
3926.000000	73.727589
3924.000000	73.778777
3922.000000	73.828403
3920.000000	73.817944
3918.000000	73.836129
3916.000000	73.990919
3914.000000	74.198797
3912.000000	74.332534
3910.000000	74.379103
3908.000000	74.278847
3906.000000	74.000973
3904.000000	73.765419
3902.000000	73.772175
3900.000000	74.010098
3898.000000	74.385844
3896.000000	74.654247
3894.000000	74.607239
3892.000000	74.491700
3890.000000	74.565724
3888.000000	74.543837
3886.000000	74.454177
3884.000000	74.604528
3882.000000	74.776744
3880.000000	74.922653
3878.000000	75.118222
3876.000000	75.153133
3874.000000	75.000309
3872.000000	74.716200
3870.000000	74.612440
3868.000000	74.850370
3866.000000	75.037982
3864.000000	75.165443
3862.000000	75.427243
3860.000000	75.640946
3858.000000	75.325657
3856.000000	74.228504
3854.000000	73.466203
3852.000000	74.139876
3850.000000	75.403124
3848.000000	76.089188
3846.000000	76.170217
3844.000000	76.035169
3842.000000	75.788447
3840.000000	75.338056
3838.000000	75.118930
3836.000000	75.504434
3834.000000	76.015295
3832.000000	76.322359
3830.000000	76.548396
3828.000000	76.683416
3826.000000	76.691602
3824.000000	76.434469
3822.000000	76.115090
3820.000000	76.117907
3818.000000	76.093163
3816.000000	76.161209
3814.000000	76.751078
3812.000000	77.265616
3810.000000	77.171976
3808.000000	76.834532
3806.000000	76.793608
3804.000000	76.686776
3802.000000	76.462446
3800.000000	76.778734
3798.000000	77.306980
3796.000000	77.621566
3794.000000	77.874988
3792.000000	78.049478
3790.000000	78.124377
3788.000000	78.145816
3786.000000	78.152860
3784.000000	78.180235
3782.000000	78.159919
3780.000000	78.132565
3778.000000	78.266583
3776.000000	78.463269
3774.000000	78.501258
3772.000000	78.337856
3770.000000	78.223410
3768.000000	78.313333
3766.000000	78.477408
3764.000000	78.626017
3762.000000	78.630591
3760.000000	78.546603
3758.000000	78.587308
3756.000000	78.478714
3754.000000	77.827360
3752.000000	77.114256
3750.000000	77.123614
3748.000000	77.397499
3746.000000	77.150538
3744.000000	77.324344
3742.000000	78.334567
3740.000000	78.862219
3738.000000	78.574607
3736.000000	78.295030
3734.000000	78.412590
3732.000000	78.822633
3730.000000	79.302301
3728.000000	79.506682
3726.000000	79.525524
3724.000000	79.598704
3722.000000	79.729670
3720.000000	79.901118
3718.000000	80.047451
3716.000000	79.969166
3714.000000	79.554752
3712.000000	79.275962
3710.000000	79.549818
3708.000000	80.061958
3706.000000	80.366699
3704.000000	80.361207
3702.000000	80.322654
3700.000000	80.481986
3698.000000	80.670311
3696.000000	80.721587
3694.000000	80.564843
3692.000000	80.096810
3690.000000	79.571140
3688.000000	79.702552
3686.000000	80.440697
3684.000000	80.942202
3682.000000	80.992466
3680.000000	80.724743
3678.000000	80.071039
3676.000000	79.590722
3674.000000	79.768629
3672.000000	79.901491
3670.000000	80.039887
3668.000000	80.658446
3666.000000	81.236549
3664.000000	81.450443
3662.000000	81.481672
3660.000000	81.364665
3658.000000	81.073665
3656.000000	80.963238
3654.000000	80.983486
3652.000000	80.551546
3650.000000	80.049233
3648.000000	80.279076
3646.000000	80.989714
3644.000000	81.488780
3642.000000	81.654339
3640.000000	81.695579
3638.000000	81.698363
3636.000000	81.648126
3634.000000	81.508446
3632.000000	81.049346
3630.000000	80.461178
3628.000000	80.604607
3626.000000	81.303642
3624.000000	81.645237
3622.000000	81.453572
3620.000000	81.171181
3618.000000	81.217652
3616.000000	81.380686
3614.000000	81.361211
3612.000000	81.252943
3610.000000	81.178691
3608.000000	81.307380
3606.000000	81.600956
3604.000000	81.764211
3602.000000	81.751737
3600.000000	81.712361
3598.000000	81.677096
3596.000000	81.630432
3594.000000	81.642968
3592.000000	81.625540
3590.000000	81.407577
3588.000000	81.230768
3586.000000	81.386430
3584.000000	81.654202
3582.000000	81.772984
3580.000000	81.783359
3578.000000	81.778221
3576.000000	81.777433
3574.000000	81.777429
3572.000000	81.710621
3570.000000	81.477588
3568.000000	81.244234
3566.000000	81.298701
3564.000000	81.518868
3562.000000	81.646381
3560.000000	81.687070
3558.000000	81.711218
3556.000000	81.698842
3554.000000	81.643933
3552.000000	81.612969
3550.000000	81.597482
3548.000000	81.524641
3546.000000	81.469983
3544.000000	81.517216
3542.000000	81.594298
3540.000000	81.615487
3538.000000	81.583618
3536.000000	81.556860
3534.000000	81.550851
3532.000000	81.513777
3530.000000	81.438046
3528.000000	81.369240
3526.000000	81.321779
3524.000000	81.288232
3522.000000	81.284926
3520.000000	81.289776
3518.000000	81.273988
3516.000000	81.243953
3514.000000	81.197427
3512.000000	81.129283
3510.000000	81.066248
3508.000000	81.029170
3506.000000	80.968932
3504.000000	80.877685
3502.000000	80.829812
3500.000000	80.816366
3498.000000	80.776079
3496.000000	80.720350
3494.000000	80.675859
3492.000000	80.627270
3490.000000	80.563663
3488.000000	80.505202
3486.000000	80.461970
3484.000000	80.414133
3482.000000	80.371743
3480.000000	80.361203
3478.000000	80.366800
3476.000000	80.366096
3474.000000	80.368741
3472.000000	80.376977
3470.000000	80.379697
3468.000000	80.387380
3466.000000	80.417980
3464.000000	80.457883
3462.000000	80.494210
3460.000000	80.534945
3458.000000	80.577440
3456.000000	80.613585
3454.000000	80.642163
3452.000000	80.661347
3450.000000	80.658953
3448.000000	80.648258
3446.000000	80.675027
3444.000000	80.731066
3442.000000	80.794528
3440.000000	80.871615
3438.000000	80.958279
3436.000000	81.057028
3434.000000	81.178518
3432.000000	81.317932
3430.000000	81.461778
3428.000000	81.606881
3426.000000	81.744950
3424.000000	81.863199
3422.000000	81.965221
3420.000000	82.075037
3418.000000	82.193869
3416.000000	82.296355
3414.000000	82.377528
3412.000000	82.449413
3410.000000	82.516211
3408.000000	82.578483
3406.000000	82.635356
3404.000000	82.682818
3402.000000	82.725813
3400.000000	82.781271
3398.000000	82.857773
3396.000000	82.940096
3394.000000	83.006822
3392.000000	83.069915
3390.000000	83.152822
3388.000000	83.236031
3386.000000	83.300058
3384.000000	83.359086
3382.000000	83.418807
3380.000000	83.474330
3378.000000	83.526081
3376.000000	83.576273
3374.000000	83.623647
3372.000000	83.659926
3370.000000	83.685884
3368.000000	83.721751
3366.000000	83.774709
3364.000000	83.831457
3362.000000	83.881218
3360.000000	83.926204
3358.000000	83.970436
3356.000000	84.013949
3354.000000	84.056546
3352.000000	84.094875
3350.000000	84.135305
3348.000000	84.183392
3346.000000	84.228430
3344.000000	84.267759
3342.000000	84.305607
3340.000000	84.340191
3338.000000	84.373607
3336.000000	84.416829
3334.000000	84.466120
3332.000000	84.509973
3330.000000	84.547020
3328.000000	84.580025
3326.000000	84.612792
3324.000000	84.651835
3322.000000	84.694442
3320.000000	84.734207
3318.000000	84.770799
3316.000000	84.805091
3314.000000	84.835794
3312.000000	84.864575
3310.000000	84.888172
3308.000000	84.908302
3306.000000	84.936004
3304.000000	84.982278
3302.000000	85.036962
3300.000000	85.080134
3298.000000	85.112860
3296.000000	85.143472
3294.000000	85.171568
3292.000000	85.203314
3290.000000	85.247919
3288.000000	85.295733
3286.000000	85.335368
3284.000000	85.371833
3282.000000	85.410081
3280.000000	85.447196
3278.000000	85.479822
3276.000000	85.510733
3274.000000	85.544680
3272.000000	85.582753
3270.000000	85.628228
3268.000000	85.680469
3266.000000	85.728031
3264.000000	85.771863
3262.000000	85.815091
3260.000000	85.858430
3258.000000	85.899863
3256.000000	85.940430
3254.000000	85.987343
3252.000000	86.040530
3250.000000	86.090190
3248.000000	86.130877
3246.000000	86.169972
3244.000000	86.222442
3242.000000	86.281037
3240.000000	86.334729
3238.000000	86.383258
3236.000000	86.427081
3234.000000	86.467634
3232.000000	86.517816
3230.000000	86.576985
3228.000000	86.633103
3226.000000	86.685864
3224.000000	86.735771
3222.000000	86.779311
3220.000000	86.822771
3218.000000	86.872826
3216.000000	86.922542
3214.000000	86.971309
3212.000000	87.023723
3210.000000	87.076589
3208.000000	87.136437
3206.000000	87.202793
3204.000000	87.270936
3202.000000	87.339370
3200.000000	87.406519
3198.000000	87.474646
3196.000000	87.550850
3194.000000	87.630134
3192.000000	87.706077
3190.000000	87.778816
3188.000000	87.849187
3186.000000	87.917798
3184.000000	87.990176
3182.000000	88.061783
3180.000000	88.128649
3178.000000	88.198364
3176.000000	88.275603
3174.000000	88.351368
3172.000000	88.424908
3170.000000	88.499001
3168.000000	88.574703
3166.000000	88.650818
3164.000000	88.727849
3162.000000	88.804905
3160.000000	88.883309
3158.000000	88.962738
3156.000000	89.039776
3154.000000	89.107377
3152.000000	89.178989
3150.000000	89.265794
3148.000000	89.353223
3146.000000	89.432835
3144.000000	89.508593
3142.000000	89.579804
3140.000000	89.648996
3138.000000	89.719835
3136.000000	89.789624
3134.000000	89.854996
3132.000000	89.924467
3130.000000	89.994436
3128.000000	90.059523
3126.000000	90.120526
3124.000000	90.175857
3122.000000	90.224378
3120.000000	90.272120
3118.000000	90.321310
3116.000000	90.377517
3114.000000	90.444909
3112.000000	90.510146
3110.000000	90.560849
3108.000000	90.611342
3106.000000	90.670770
3104.000000	90.729773
3102.000000	90.786387
3100.000000	90.851123
3098.000000	90.919214
3096.000000	90.985263
3094.000000	91.052976
3092.000000	91.118816
3090.000000	91.177685
3088.000000	91.234259
3086.000000	91.286631
3084.000000	91.334196
3082.000000	91.375241
3080.000000	91.409370
3078.000000	91.447428
3076.000000	91.493853
3074.000000	91.529987
3072.000000	91.550197
3070.000000	91.557033
3068.000000	91.558236
3066.000000	91.572535
3064.000000	91.611152
3062.000000	91.664451
3060.000000	91.720961
3058.000000	91.775572
3056.000000	91.836273
3054.000000	91.902091
3052.000000	91.960090
3050.000000	92.009878
3048.000000	92.060025
3046.000000	92.102710
3044.000000	92.133083
3042.000000	92.157688
3040.000000	92.184529
3038.000000	92.205798
3036.000000	92.213490
3034.000000	92.208873
3032.000000	92.196725
3030.000000	92.168845
3028.000000	92.105451
3026.000000	91.997564
3024.000000	91.868176
3022.000000	91.750682
3020.000000	91.684985
3018.000000	91.710737
3016.000000	91.849981
3014.000000	92.084462
3012.000000	92.370643
3010.000000	92.652872
3008.000000	92.885533
3006.000000	93.049823
3004.000000	93.163073
3002.000000	93.245065
3000.000000	93.302964
2998.000000	93.342012
2996.000000	93.372102
2994.000000	93.392233
2992.000000	93.403920
2990.000000	93.406355
2988.000000	93.393178
2986.000000	93.359528
2984.000000	93.302964
2982.000000	93.214165
2980.000000	93.091166
2978.000000	92.925298
2976.000000	92.698069
2974.000000	92.392016
2972.000000	91.997877
2970.000000	91.515808
2968.000000	90.988740
2966.000000	90.500841
2964.000000	90.143063
2962.000000	89.971134
2960.000000	89.986292
2958.000000	90.129490
2956.000000	90.323777
2954.000000	90.509332
2952.000000	90.653338
2950.000000	90.724262
2948.000000	90.687616
2946.000000	90.522218
2944.000000	90.227008
2942.000000	89.814126
2940.000000	89.321397
2938.000000	88.807010
2936.000000	88.331588
2934.000000	87.909323
2932.000000	87.510601
2930.000000	87.118360
2928.000000	86.788067
2926.000000	86.624843
2924.000000	86.734012
2922.000000	87.155333
2920.000000	87.834215
2918.000000	88.653159
2916.000000	89.504762
2914.000000	90.308016
2912.000000	91.004259
2910.000000	91.561265
2908.000000	91.995073
2906.000000	92.344174
2904.000000	92.644891
2902.000000	92.919569
2900.000000	93.176864
2898.000000	93.416354
2896.000000	93.642079
2894.000000	93.857260
2892.000000	94.063128
2890.000000	94.251200
2888.000000	94.415483
2886.000000	94.544937
2884.000000	94.633106
2882.000000	94.676098
2880.000000	94.674379
2878.000000	94.620610
2876.000000	94.506988
2874.000000	94.325170
2872.000000	94.069857
2870.000000	93.711080
2868.000000	93.223410
2866.000000	92.644946
2864.000000	92.101241
2862.000000	91.745393
2860.000000	91.669633
2858.000000	91.838683
2856.000000	92.143420
2854.000000	92.502846
2852.000000	92.916769
2850.000000	93.424624
2848.000000	94.030169
2846.000000	94.651505
2844.000000	95.195475
2842.000000	95.628900
2840.000000	95.968084
2838.000000	96.238172
2836.000000	96.460696
2834.000000	96.644049
2832.000000	96.799508
2830.000000	96.935652
2828.000000	97.059055
2826.000000	97.169800
2824.000000	97.272330
2822.000000	97.365457
2820.000000	97.451493
2818.000000	97.529296
2816.000000	97.599270
2814.000000	97.662266
2812.000000	97.721910
2810.000000	97.776093
2808.000000	97.826869
2806.000000	97.873695
2804.000000	97.919521
2802.000000	97.962596
2800.000000	98.004478
2798.000000	98.044542
2796.000000	98.086118
2794.000000	98.128899
2792.000000	98.175686
2790.000000	98.229398
2788.000000	98.299073
2786.000000	98.381844
2784.000000	98.468022
2782.000000	98.548452
2780.000000	98.623219
2778.000000	98.690229
2776.000000	98.751078
2774.000000	98.808301
2772.000000	98.864910
2770.000000	98.916373
2768.000000	98.966132
2766.000000	99.014721
2764.000000	99.063124
2762.000000	99.108343
2760.000000	99.152523
2758.000000	99.196426
2756.000000	99.241998
2754.000000	99.282862
2752.000000	99.320821
2750.000000	99.357113
2748.000000	99.394738
2746.000000	99.430758
2744.000000	99.466474
2742.000000	99.501108
2740.000000	99.536222
2738.000000	99.570037
2736.000000	99.604132
2734.000000	99.637162
2732.000000	99.671146
2730.000000	99.703440
2728.000000	99.735899
2726.000000	99.766621
2724.000000	99.798954
2722.000000	99.830485
2720.000000	99.862064
2718.000000	99.891708
2716.000000	99.922042
2714.000000	99.949087
2712.000000	99.974416
2710.000000	99.996918
2708.000000	100.019987
2706.000000	100.044691
2704.000000	100.075007
2702.000000	100.109428
2700.000000	100.151510
2698.000000	100.198336
2696.000000	100.246554
2694.000000	100.290705
2692.000000	100.334242
2690.000000	100.375884
2688.000000	100.417087
2686.000000	100.455928
2684.000000	100.494820
2682.000000	100.531945
2680.000000	100.567813
2678.000000	100.600070
2676.000000	100.632517
2674.000000	100.663307
2672.000000	100.694822
2670.000000	100.724779
2668.000000	100.754575
2666.000000	100.782394
2664.000000	100.810987
2662.000000	100.838441
2660.000000	100.867260
2658.000000	100.897455
2656.000000	100.931150
2654.000000	100.966061
2652.000000	101.004206
2650.000000	101.042937
2648.000000	101.083837
2646.000000	101.122497
2644.000000	101.159247
2642.000000	101.193173
2640.000000	101.228542
2638.000000	101.263027
2636.000000	101.298072
2634.000000	101.329623
2632.000000	101.360351
2630.000000	101.388684
2628.000000	101.417205
2626.000000	101.444785
2624.000000	101.472872
2622.000000	101.499384
2620.000000	101.527275
2618.000000	101.553787
2616.000000	101.580837
2614.000000	101.604919
2612.000000	101.627894
2610.000000	101.647375
2608.000000	101.665933
2606.000000	101.682111
2604.000000	101.698234
2602.000000	101.710493
2600.000000	101.721315
2598.000000	101.729011
2596.000000	101.739238
2594.000000	101.753441
2592.000000	101.775786
2590.000000	101.805836
2588.000000	101.848011
2586.000000	101.898680
2584.000000	101.958232
2582.000000	102.019193
2580.000000	102.081452
2578.000000	102.139137
2576.000000	102.193242
2574.000000	102.240074
2572.000000	102.283129
2570.000000	102.321794
2568.000000	102.359223
2566.000000	102.392495
2564.000000	102.424566
2562.000000	102.454530
2560.000000	102.484294
2558.000000	102.510452
2556.000000	102.537798
2554.000000	102.564959
2552.000000	102.591394
2550.000000	102.615554
2548.000000	102.642035
2546.000000	102.666421
2544.000000	102.691935
2542.000000	102.717236
2540.000000	102.744314
2538.000000	102.769670
2536.000000	102.795180
2534.000000	102.819382
2532.000000	102.845629
2530.000000	102.870706
2528.000000	102.896965
2526.000000	102.921583
2524.000000	102.946118
2522.000000	102.967425
2520.000000	102.990661
2518.000000	103.013694
2516.000000	103.037931
2514.000000	103.060670
2512.000000	103.084091
2510.000000	103.104129
2508.000000	103.124503
2506.000000	103.144133
2504.000000	103.165070
2502.000000	103.184981
2500.000000	103.208227
2498.000000	103.231356
2496.000000	103.257740
2494.000000	103.283957
2492.000000	103.310985
2490.000000	103.335421
2488.000000	103.360944
2486.000000	103.386380
2484.000000	103.412842
2482.000000	103.436101
2480.000000	103.460986
2478.000000	103.483681
2476.000000	103.507158
2474.000000	103.528170
2472.000000	103.548128
2470.000000	103.565009
2468.000000	103.582776
2466.000000	103.599820
2464.000000	103.617032
2462.000000	103.630804
2460.000000	103.646752
2458.000000	103.662488
2456.000000	103.678966
2454.000000	103.692811
2452.000000	103.709702
2450.000000	103.726734
2448.000000	103.743801
2446.000000	103.758676
2444.000000	103.776104
2442.000000	103.790556
2440.000000	103.805330
2438.000000	103.817872
2436.000000	103.831837
2434.000000	103.845381
2432.000000	103.859578
2430.000000	103.869925
2428.000000	103.881518
2426.000000	103.891897
2424.000000	103.907334
2422.000000	103.922816
2420.000000	103.937288
2418.000000	103.948570
2416.000000	103.961553
2414.000000	103.972021
2412.000000	103.983574
2410.000000	103.994338
2408.000000	104.008011
2406.000000	104.021102
2404.000000	104.035530
2402.000000	104.048194
2400.000000	104.064942
2398.000000	104.081575
2396.000000	104.099452
2394.000000	104.115435
2392.000000	104.131749
2390.000000	104.145051
2388.000000	104.157610
2386.000000	104.160057
2384.000000	104.146346
2382.000000	104.103635
2380.000000	104.024779
2378.000000	103.893030
2376.000000	103.706343
2374.000000	103.466719
2372.000000	103.190372
2370.000000	102.896865
2368.000000	102.619046
2366.000000	102.386536
2364.000000	102.234291
2362.000000	102.181621
2360.000000	102.243681
2358.000000	102.419693
2356.000000	102.706314
2354.000000	103.078091
2352.000000	103.493092
2350.000000	103.794379
2348.000000	103.777673
2346.000000	103.505564
2344.000000	103.217520
2342.000000	103.007933
2340.000000	102.885700
2338.000000	102.831273
2336.000000	102.830871
2334.000000	102.867020
2332.000000	102.936913
2330.000000	103.035820
2328.000000	103.160790
2326.000000	103.297665
2324.000000	103.441295
2322.000000	103.581649
2320.000000	103.715894
2318.000000	103.837396
2316.000000	103.949026
2314.000000	104.044612
2312.000000	104.129594
2310.000000	104.200233
2308.000000	104.259755
2306.000000	104.306883
2304.000000	104.347855
2302.000000	104.379530
2300.000000	104.407145
2298.000000	104.428607
2296.000000	104.450017
2294.000000	104.466602
2292.000000	104.482691
2290.000000	104.494123
2288.000000	104.506295
2286.000000	104.514971
2284.000000	104.523135
2282.000000	104.523528
2280.000000	104.520791
2278.000000	104.513862
2276.000000	104.509653
2274.000000	104.502780
2272.000000	104.498959
2270.000000	104.492774
2268.000000	104.488219
2266.000000	104.482085
2264.000000	104.478372
2262.000000	104.474421
2260.000000	104.473688
2258.000000	104.470831
2256.000000	104.471473
2254.000000	104.472559
2252.000000	104.478533
2250.000000	104.483165
2248.000000	104.491595
2246.000000	104.499594
2244.000000	104.510121
2242.000000	104.520246
2240.000000	104.535011
2238.000000	104.546907
2236.000000	104.559656
2234.000000	104.571730
2232.000000	104.588180
2230.000000	104.601223
2228.000000	104.614385
2226.000000	104.624256
2224.000000	104.635544
2222.000000	104.642327
2220.000000	104.650229
2218.000000	104.655747
2216.000000	104.662874
2214.000000	104.667620
2212.000000	104.675292
2210.000000	104.678428
2208.000000	104.683371
2206.000000	104.687034
2204.000000	104.693061
2202.000000	104.695442
2200.000000	104.700205
2198.000000	104.702373
2196.000000	104.706581
2194.000000	104.707433
2192.000000	104.710432
2190.000000	104.711005
2188.000000	104.711670
2186.000000	104.708634
2184.000000	104.709711
2182.000000	104.708069
2180.000000	104.707806
2178.000000	104.705109
2176.000000	104.703468
2174.000000	104.692372
2172.000000	104.670048
2170.000000	104.644870
2168.000000	104.656333
2166.000000	104.677976
2164.000000	104.687754
2162.000000	104.687246
2160.000000	104.685598
2158.000000	104.680827
2156.000000	104.682743
2154.000000	104.682329
2152.000000	104.681596
2150.000000	104.676530
2148.000000	104.675582
2146.000000	104.673018
2144.000000	104.674032
2142.000000	104.670728
2140.000000	104.669876
2138.000000	104.664987
2136.000000	104.663929
2134.000000	104.664062
2132.000000	104.664213
2130.000000	104.661160
2128.000000	104.661445
2126.000000	104.658849
2124.000000	104.659949
2122.000000	104.659401
2120.000000	104.662000
2118.000000	104.663523
2116.000000	104.666595
2114.000000	104.672467
2112.000000	104.684498
2110.000000	104.694208
2108.000000	104.706275
2106.000000	104.717454
2104.000000	104.731559
2102.000000	104.742282
2100.000000	104.755432
2098.000000	104.764942
2096.000000	104.778698
2094.000000	104.790453
2092.000000	104.801718
2090.000000	104.808012
2088.000000	104.827569
2086.000000	104.843658
2084.000000	104.862044
2082.000000	104.876405
2080.000000	104.894731
2078.000000	104.908657
2076.000000	104.927234
2074.000000	104.941369
2072.000000	104.961068
2070.000000	104.977415
2068.000000	104.991835
2066.000000	104.994757
2064.000000	105.018710
2062.000000	105.052130
2060.000000	105.080041
2058.000000	105.100395
2056.000000	105.123201
2054.000000	105.142392
2052.000000	105.163973
2050.000000	105.181296
2048.000000	105.203995
2046.000000	105.220757
2044.000000	105.233891
2042.000000	105.239374
2040.000000	105.263349
2038.000000	105.286393
2036.000000	105.301409
2034.000000	105.308425
2032.000000	105.310842
2030.000000	105.293347
2028.000000	105.301276
2026.000000	105.333372
2024.000000	105.358721
2022.000000	105.367111
2020.000000	105.360035
2018.000000	105.339654
2016.000000	105.366612
2014.000000	105.417853
2012.000000	105.448273
2010.000000	105.460178
2008.000000	105.475193
2006.000000	105.489058
2004.000000	105.503860
2002.000000	105.508241
2000.000000	105.511101
1998.000000	105.513833
1996.000000	105.512356
1994.000000	105.452174
1992.000000	105.401848
1990.000000	105.442453
1988.000000	105.486813
1986.000000	105.503427
1984.000000	105.506971
1982.000000	105.495481
1980.000000	105.484623
1978.000000	105.469348
1976.000000	105.457125
1974.000000	105.441327
1972.000000	105.423365
1970.000000	105.374813
1968.000000	105.301261
1966.000000	105.285313
1964.000000	105.307227
1962.000000	105.255890
1960.000000	105.135617
1958.000000	105.104051
1956.000000	105.184657
1954.000000	105.211462
1952.000000	105.194548
1950.000000	105.159429
1948.000000	105.129733
1946.000000	105.067584
1944.000000	104.945120
1942.000000	104.898746
1940.000000	105.002277
1938.000000	105.038552
1936.000000	105.020470
1934.000000	104.988222
1932.000000	104.965374
1930.000000	104.937444
1928.000000	104.910303
1926.000000	104.838902
1924.000000	104.717201
1922.000000	104.652336
1920.000000	104.530470
1918.000000	104.370411
1916.000000	104.512630
1914.000000	104.615695
1912.000000	104.552151
1910.000000	104.446208
1908.000000	104.414387
1906.000000	104.398882
1904.000000	104.365017
1902.000000	104.310390
1900.000000	104.266310
1898.000000	104.193662
1896.000000	104.112052
1894.000000	104.076292
1892.000000	104.012843
1890.000000	103.871308
1888.000000	103.929075
1886.000000	104.018025
1884.000000	104.024689
1882.000000	104.008479
1880.000000	103.992707
1878.000000	103.961611
1876.000000	103.943339
1874.000000	103.899883
1872.000000	103.713873
1870.000000	103.332128
1868.000000	103.296976
1866.000000	103.579463
1864.000000	103.729149
1862.000000	103.716325
1860.000000	103.683588
1858.000000	103.649813
1856.000000	103.632728
1854.000000	103.595205
1852.000000	103.555878
1850.000000	103.461296
1848.000000	103.271917
1846.000000	102.736723
1844.000000	102.416277
1842.000000	102.892649
1840.000000	103.218590
1838.000000	103.166420
1836.000000	103.116535
1834.000000	103.040093
1832.000000	102.715438
1830.000000	102.386749
1828.000000	102.474296
1826.000000	102.445399
1824.000000	102.481189
1822.000000	102.645911
1820.000000	102.640387
1818.000000	102.545052
1816.000000	102.487959
1814.000000	102.386174
1812.000000	102.185731
1810.000000	102.069511
1808.000000	102.085405
1806.000000	102.032603
1804.000000	101.831701
1802.000000	101.505432
1800.000000	101.358697
1798.000000	101.400516
1796.000000	101.263666
1794.000000	100.620998
1792.000000	100.278394
1790.000000	100.714506
1788.000000	100.962357
1786.000000	100.727603
1784.000000	100.579215
1782.000000	100.496145
1780.000000	100.397560
1778.000000	100.362072
1776.000000	100.030456
1774.000000	99.102181
1772.000000	98.648956
1770.000000	99.112326
1768.000000	99.386864
1766.000000	99.663327
1764.000000	99.498817
1762.000000	99.077475
1760.000000	99.149401
1758.000000	99.084611
1756.000000	98.955036
1754.000000	98.733980
1752.000000	97.932460
1750.000000	97.688670
1748.000000	97.979510
1746.000000	98.102050
1744.000000	97.966111
1742.000000	97.584837
1740.000000	97.209948
1738.000000	97.198170
1736.000000	96.184062
1734.000000	95.145119
1732.000000	96.166168
1730.000000	97.138343
1728.000000	97.394082
1726.000000	97.404654
1724.000000	97.299249
1722.000000	97.103772
1720.000000	96.117105
1718.000000	94.750288
1716.000000	95.031890
1714.000000	96.074596
1712.000000	96.608198
1710.000000	96.572694
1708.000000	96.206160
1706.000000	95.744204
1704.000000	95.500889
1702.000000	94.215332
1700.000000	93.264368
1698.000000	93.640243
1696.000000	93.556760
1694.000000	94.776991
1692.000000	95.851002
1690.000000	95.786512
1688.000000	95.253075
1686.000000	93.506742
1684.000000	92.848843
1682.000000	94.436129
1680.000000	95.359526
1678.000000	95.172692
1676.000000	94.428236
1674.000000	94.440692
1672.000000	94.527551
1670.000000	94.071416
1668.000000	94.377112
1666.000000	94.822124
1664.000000	94.461124
1662.000000	94.288326
1660.000000	94.602815
1658.000000	94.510098
1656.000000	93.062007
1654.000000	90.359550
1652.000000	90.586990
1650.000000	92.751522
1648.000000	92.623542
1646.000000	92.251716
1644.000000	93.094138
1642.000000	93.593974
1640.000000	93.341394
1638.000000	92.352465
1636.000000	91.196278
1634.000000	91.751029
1632.000000	92.647959
1630.000000	92.494193
1628.000000	92.051400
1626.000000	91.617664
1624.000000	90.957446
1622.000000	90.680271
1620.000000	90.328373
1618.000000	88.976378
1616.000000	88.424290
1614.000000	88.982732
1612.000000	88.730422
1610.000000	88.089218
1608.000000	87.766888
1606.000000	87.823777
1604.000000	88.022542
1602.000000	88.269339
1600.000000	88.519581
1598.000000	88.727250
1596.000000	88.858833
1594.000000	88.973332
1592.000000	89.052091
1590.000000	89.064142
1588.000000	89.032914
1586.000000	88.966934
1584.000000	88.890424
1582.000000	88.836614
1580.000000	88.633454
1578.000000	87.562785
1576.000000	86.813220
1574.000000	87.806966
1572.000000	88.130459
1570.000000	87.582847
1568.000000	87.697193
1566.000000	87.840590
1564.000000	87.510184
1562.000000	86.083789
1560.000000	83.710358
1558.000000	83.757613
1556.000000	85.470593
1554.000000	86.399246
1552.000000	87.094275
1550.000000	87.469361
1548.000000	87.656480
1546.000000	87.411023
1544.000000	86.826019
1542.000000	85.828878
1540.000000	85.270350
1538.000000	86.790288
1536.000000	88.291594
1534.000000	88.285857
1532.000000	88.660167
1530.000000	89.048561
1528.000000	88.799351
1526.000000	88.420928
1524.000000	87.951698
1522.000000	87.077162
1520.000000	87.264632
1518.000000	87.786694
1516.000000	87.848268
1514.000000	87.911689
1512.000000	87.697347
1510.000000	87.018937
1508.000000	85.283343
1506.000000	84.488043
1504.000000	85.379408
1502.000000	84.938797
1500.000000	82.382932
1498.000000	78.879695
1496.000000	76.360278
1494.000000	76.210117
1492.000000	77.292978
1490.000000	78.907094
1488.000000	80.917094
1486.000000	82.665447
1484.000000	83.815296
1482.000000	84.326228
1480.000000	84.558469
1478.000000	84.403307
1476.000000	83.879895
1474.000000	83.110536
1472.000000	82.938611
1470.000000	83.520057
1468.000000	83.499104
1466.000000	82.762838
1464.000000	82.368929
1462.000000	82.224760
1460.000000	81.064613
1458.000000	78.920995
1456.000000	77.949863
1454.000000	78.146511
1452.000000	77.871344
1450.000000	77.916588
1448.000000	78.691488
1446.000000	79.739259
1444.000000	80.292333
1442.000000	80.420242
1440.000000	80.239107
1438.000000	79.567846
1436.000000	79.473669
1434.000000	80.212854
1432.000000	80.378227
1430.000000	80.283731
1428.000000	80.355339
1426.000000	80.377989
1424.000000	80.227824
1422.000000	79.891824
1420.000000	79.113486
1418.000000	79.119223
1416.000000	79.570735
1414.000000	79.558334
1412.000000	79.209492
1410.000000	78.688198
1408.000000	77.922216
1406.000000	77.049969
1404.000000	76.578793
1402.000000	76.614736
1400.000000	76.745971
1398.000000	77.135734
1396.000000	77.469774
1394.000000	77.809069
1392.000000	78.284268
1390.000000	78.291517
1388.000000	77.860176
1386.000000	77.636320
1384.000000	77.655904
1382.000000	77.781812
1380.000000	77.869429
1378.000000	77.796863
1376.000000	77.584153
1374.000000	77.412619
1372.000000	77.440011
1370.000000	77.381170
1368.000000	77.226739
1366.000000	77.059898
1364.000000	76.754521
1362.000000	76.542009
1360.000000	76.518697
1358.000000	76.439527
1356.000000	76.249142
1354.000000	76.046047
1352.000000	75.844751
1350.000000	75.627087
1348.000000	75.409164
1346.000000	75.186995
1344.000000	74.935243
1342.000000	74.623577
1340.000000	74.317212
1338.000000	74.190088
1336.000000	74.162432
1334.000000	74.096239
1332.000000	73.951440
1330.000000	73.761524
1328.000000	73.540043
1326.000000	73.297442
1324.000000	73.032533
1322.000000	72.742145
1320.000000	72.418525
1318.000000	72.114430
1316.000000	71.827693
1314.000000	71.521204
1312.000000	71.213047
1310.000000	70.909697
1308.000000	70.584768
1306.000000	70.255495
1304.000000	69.915642
1302.000000	69.573128
1300.000000	69.226563
1298.000000	68.879788
1296.000000	68.524720
1294.000000	68.160439
1292.000000	67.775557
1290.000000	67.378273
1288.000000	66.974098
1286.000000	66.576613
1284.000000	66.165703
1282.000000	65.734266
1280.000000	65.276912
1278.000000	64.790075
1276.000000	64.249634
1274.000000	63.633633
1272.000000	62.900740
1270.000000	62.014091
1268.000000	60.909625
1266.000000	59.589414
1264.000000	58.215025
1262.000000	57.111500
1260.000000	56.559936
1258.000000	56.569886
1256.000000	56.862293
1254.000000	57.107503
1252.000000	57.106000
1250.000000	56.863427
1248.000000	56.467163
1246.000000	55.996148
1244.000000	55.487004
1242.000000	54.972168
1240.000000	54.463532
1238.000000	53.970697
1236.000000	53.491852
1234.000000	53.029119
1232.000000	52.573501
1230.000000	52.125790
1228.000000	51.677735
1226.000000	51.226674
1224.000000	50.767265
1222.000000	50.297024
1220.000000	49.803009
1218.000000	49.290678
1216.000000	48.768711
1214.000000	48.254175
1212.000000	47.759621
1210.000000	47.305610
1208.000000	46.887887
1206.000000	46.491029
1204.000000	46.093254
1202.000000	45.691903
1200.000000	45.295291
1198.000000	44.908396
1196.000000	44.515843
1194.000000	44.111881
1192.000000	43.693430
1190.000000	43.264092
1188.000000	42.819672
1186.000000	42.347017
1184.000000	41.764121
1182.000000	41.037967
1180.000000	40.470920
1178.000000	40.222735
1176.000000	39.989515
1174.000000	39.631113
1172.000000	39.204773
1170.000000	38.757080
1168.000000	38.291037
1166.000000	37.816893
1164.000000	37.344022
1162.000000	36.881631
1160.000000	36.425130
1158.000000	35.988964
1156.000000	35.567316
1154.000000	35.149684
1152.000000	34.724301
1150.000000	34.300987
1148.000000	33.869853
1146.000000	33.431623
1144.000000	33.001376
1142.000000	32.623152
1140.000000	32.312498
1138.000000	32.000669
1136.000000	31.640513
1134.000000	31.248642
1132.000000	30.833105
1130.000000	30.405627
1128.000000	29.982254
1126.000000	29.563874
1124.000000	29.135353
1122.000000	28.697160
1120.000000	28.246602
1118.000000	27.789154
1116.000000	27.324611
1114.000000	26.858165
1112.000000	26.390812
1110.000000	25.927772
1108.000000	25.471182
1106.000000	25.034234
1104.000000	24.615705
1102.000000	24.205154
1100.000000	23.791420
1098.000000	23.384129
1096.000000	22.987730
1094.000000	22.605394
1092.000000	22.237289
1090.000000	21.887481
1088.000000	21.546009
1086.000000	21.206711
1084.000000	20.858343
1082.000000	20.501939
1080.000000	20.163284
1078.000000	19.858088
1076.000000	19.582513
1074.000000	19.350708
1072.000000	19.135786
1070.000000	18.912176
1068.000000	18.681221
1066.000000	18.452525
1064.000000	18.220068
1062.000000	17.984254
1060.000000	17.736879
1058.000000	17.449982
1056.000000	17.061107
1054.000000	16.547558
1052.000000	16.039375
1050.000000	15.741178
1048.000000	15.708786
1046.000000	15.790716
1044.000000	15.791475
1042.000000	15.676144
1040.000000	15.492820
1038.000000	15.279717
1036.000000	15.051276
1034.000000	14.813337
1032.000000	14.564700
1030.000000	14.306673
1028.000000	14.040132
1026.000000	13.770104
1024.000000	13.498210
1022.000000	13.231315
1020.000000	12.976746
1018.000000	12.742940
1016.000000	12.530361
1014.000000	12.342887
1012.000000	12.173530
1010.000000	12.011952
1008.000000	11.845387
1006.000000	11.667191
1004.000000	11.471685
1002.000000	11.259445
1000.000000	11.032121
