PE IR       SUBTECH     SPECTRUM    ASCII       PEDS        4.00        
   -1
TE110A_080_140K_BG.ASC
20/05/14
15:32:25.00
20/05/14
15:32:25.00
Administrator
TE110A.Thursday, May 14 2020, 011.
1000.000000
#HDR
-1
-1
#GR
cm-1
EGY
1.0
0.0
6000.000000
-2.000000
2501
8
105.187050
11.076737
#DATA
6000.000000	16.457750
5998.000000	16.490966
5996.000000	16.523177
5994.000000	16.555783
5992.000000	16.587797
5990.000000	16.620033
5988.000000	16.652209
5986.000000	16.684235
5984.000000	16.716552
5982.000000	16.749904
5980.000000	16.782535
5978.000000	16.814955
5976.000000	16.846676
5974.000000	16.879199
5972.000000	16.912409
5970.000000	16.945589
5968.000000	16.978899
5966.000000	17.012963
5964.000000	17.046635
5962.000000	17.081480
5960.000000	17.115062
5958.000000	17.148800
5956.000000	17.181969
5954.000000	17.215115
5952.000000	17.248298
5950.000000	17.281655
5948.000000	17.314323
5946.000000	17.347836
5944.000000	17.381076
5942.000000	17.414533
5940.000000	17.446887
5938.000000	17.479439
5936.000000	17.511871
5934.000000	17.544847
5932.000000	17.578353
5930.000000	17.612356
5928.000000	17.645641
5926.000000	17.679396
5924.000000	17.713316
5922.000000	17.748557
5920.000000	17.783571
5918.000000	17.818403
5916.000000	17.853593
5914.000000	17.889584
5912.000000	17.925094
5910.000000	17.961336
5908.000000	17.997341
5906.000000	18.033661
5904.000000	18.068697
5902.000000	18.104664
5900.000000	18.140622
5898.000000	18.177333
5896.000000	18.213631
5894.000000	18.250043
5892.000000	18.285238
5890.000000	18.319169
5888.000000	18.352720
5886.000000	18.387735
5884.000000	18.423043
5882.000000	18.458643
5880.000000	18.494181
5878.000000	18.529521
5876.000000	18.564374
5874.000000	18.599873
5872.000000	18.636062
5870.000000	18.673062
5868.000000	18.708957
5866.000000	18.745563
5864.000000	18.782304
5862.000000	18.820218
5860.000000	18.857439
5858.000000	18.894816
5856.000000	18.931040
5854.000000	18.967431
5852.000000	19.003034
5850.000000	19.040497
5848.000000	19.078709
5846.000000	19.118792
5844.000000	19.159503
5842.000000	19.200612
5840.000000	19.240711
5838.000000	19.280081
5836.000000	19.319803
5834.000000	19.361141
5832.000000	19.402630
5830.000000	19.444135
5828.000000	19.483866
5826.000000	19.523071
5824.000000	19.562718
5822.000000	19.603679
5820.000000	19.644715
5818.000000	19.685271
5816.000000	19.724029
5814.000000	19.764508
5812.000000	19.804176
5810.000000	19.843906
5808.000000	19.882631
5806.000000	19.922675
5804.000000	19.963954
5802.000000	20.005326
5800.000000	20.045087
5798.000000	20.084801
5796.000000	20.124891
5794.000000	20.165905
5792.000000	20.206178
5790.000000	20.246961
5788.000000	20.287093
5786.000000	20.327663
5784.000000	20.366860
5782.000000	20.406773
5780.000000	20.447719
5778.000000	20.489631
5776.000000	20.530831
5774.000000	20.571477
5772.000000	20.611921
5770.000000	20.653293
5768.000000	20.694232
5766.000000	20.735688
5764.000000	20.777337
5762.000000	20.819210
5760.000000	20.860118
5758.000000	20.900533
5756.000000	20.940946
5754.000000	20.982938
5752.000000	21.024937
5750.000000	21.066739
5748.000000	21.106062
5746.000000	21.145294
5744.000000	21.185003
5742.000000	21.225923
5740.000000	21.266984
5738.000000	21.307219
5736.000000	21.345608
5734.000000	21.384137
5732.000000	21.423694
5730.000000	21.464338
5728.000000	21.503740
5726.000000	21.542829
5724.000000	21.583785
5722.000000	21.627366
5720.000000	21.669178
5718.000000	21.709837
5716.000000	21.750584
5714.000000	21.794014
5712.000000	21.837548
5710.000000	21.880821
5708.000000	21.923747
5706.000000	21.967336
5704.000000	22.010026
5702.000000	22.053330
5700.000000	22.096630
5698.000000	22.140622
5696.000000	22.184822
5694.000000	22.230112
5692.000000	22.275358
5690.000000	22.319628
5688.000000	22.362569
5686.000000	22.405985
5684.000000	22.450082
5682.000000	22.496438
5680.000000	22.541539
5678.000000	22.585569
5676.000000	22.628897
5674.000000	22.674400
5672.000000	22.720623
5670.000000	22.765126
5668.000000	22.807889
5666.000000	22.852345
5664.000000	22.897247
5662.000000	22.942438
5660.000000	22.986835
5658.000000	23.033338
5656.000000	23.080006
5654.000000	23.124955
5652.000000	23.167648
5650.000000	23.211100
5648.000000	23.254969
5646.000000	23.300202
5644.000000	23.345155
5642.000000	23.390852
5640.000000	23.435134
5638.000000	23.479036
5636.000000	23.522730
5634.000000	23.567103
5632.000000	23.612054
5630.000000	23.657576
5628.000000	23.702294
5626.000000	23.747028
5624.000000	23.791355
5622.000000	23.836204
5620.000000	23.880593
5618.000000	23.925817
5616.000000	23.970416
5614.000000	24.015531
5612.000000	24.060036
5610.000000	24.105528
5608.000000	24.150559
5606.000000	24.195437
5604.000000	24.239625
5602.000000	24.285014
5600.000000	24.330278
5598.000000	24.375696
5596.000000	24.420399
5594.000000	24.466267
5592.000000	24.512499
5590.000000	24.559325
5588.000000	24.605057
5586.000000	24.651223
5584.000000	24.697089
5582.000000	24.745154
5580.000000	24.792199
5578.000000	24.837972
5576.000000	24.882612
5574.000000	24.928631
5572.000000	24.975320
5570.000000	25.022978
5568.000000	25.070435
5566.000000	25.117681
5564.000000	25.163748
5562.000000	25.211763
5560.000000	25.260254
5558.000000	25.307266
5556.000000	25.352231
5554.000000	25.397736
5552.000000	25.444204
5550.000000	25.491600
5548.000000	25.539042
5546.000000	25.586934
5544.000000	25.633194
5542.000000	25.679420
5540.000000	25.725151
5538.000000	25.771266
5536.000000	25.817812
5534.000000	25.865968
5532.000000	25.914206
5530.000000	25.961863
5528.000000	26.007463
5526.000000	26.052568
5524.000000	26.097080
5522.000000	26.143093
5520.000000	26.188839
5518.000000	26.235906
5516.000000	26.284514
5514.000000	26.334307
5512.000000	26.381386
5510.000000	26.424756
5508.000000	26.468191
5506.000000	26.515827
5504.000000	26.565670
5502.000000	26.615608
5500.000000	26.663371
5498.000000	26.707927
5496.000000	26.746210
5494.000000	26.784884
5492.000000	26.829703
5490.000000	26.882710
5488.000000	26.937456
5486.000000	26.992655
5484.000000	27.047192
5482.000000	27.098739
5480.000000	27.140051
5478.000000	27.174327
5476.000000	27.214607
5474.000000	27.267951
5472.000000	27.326023
5470.000000	27.377692
5468.000000	27.424379
5466.000000	27.470483
5464.000000	27.514276
5462.000000	27.559349
5460.000000	27.609074
5458.000000	27.664121
5456.000000	27.719288
5454.000000	27.770003
5452.000000	27.814120
5450.000000	27.852187
5448.000000	27.888948
5446.000000	27.930599
5444.000000	27.975939
5442.000000	28.030467
5440.000000	28.086344
5438.000000	28.136305
5436.000000	28.180820
5434.000000	28.224531
5432.000000	28.267804
5430.000000	28.313235
5428.000000	28.368572
5426.000000	28.435652
5424.000000	28.499448
5422.000000	28.554570
5420.000000	28.602459
5418.000000	28.637142
5416.000000	28.660640
5414.000000	28.688419
5412.000000	28.735134
5410.000000	28.800589
5408.000000	28.868236
5406.000000	28.931040
5404.000000	28.985464
5402.000000	29.036039
5400.000000	29.080514
5398.000000	29.116499
5396.000000	29.149747
5394.000000	29.196621
5392.000000	29.258114
5390.000000	29.318370
5388.000000	29.364468
5386.000000	29.409944
5384.000000	29.464876
5382.000000	29.521654
5380.000000	29.562767
5378.000000	29.598152
5376.000000	29.645856
5374.000000	29.711507
5372.000000	29.779102
5370.000000	29.837829
5368.000000	29.886756
5366.000000	29.931897
5364.000000	29.978823
5362.000000	30.032130
5360.000000	30.085429
5358.000000	30.127268
5356.000000	30.157023
5354.000000	30.194264
5352.000000	30.247218
5350.000000	30.304961
5348.000000	30.345556
5346.000000	30.380813
5344.000000	30.426430
5342.000000	30.477427
5340.000000	30.525113
5338.000000	30.578903
5336.000000	30.644787
5334.000000	30.711855
5332.000000	30.765030
5330.000000	30.809092
5328.000000	30.856364
5326.000000	30.913919
5324.000000	30.977667
5322.000000	31.036208
5320.000000	31.086995
5318.000000	31.136271
5316.000000	31.185465
5314.000000	31.235729
5312.000000	31.281866
5310.000000	31.324070
5308.000000	31.369177
5306.000000	31.422331
5304.000000	31.478991
5302.000000	31.533275
5300.000000	31.585898
5298.000000	31.639650
5296.000000	31.690586
5294.000000	31.734454
5292.000000	31.774707
5290.000000	31.821867
5288.000000	31.876645
5286.000000	31.933981
5284.000000	31.987875
5282.000000	32.042163
5280.000000	32.097260
5278.000000	32.152743
5276.000000	32.206987
5274.000000	32.259126
5272.000000	32.306561
5270.000000	32.351244
5268.000000	32.388681
5266.000000	32.423854
5264.000000	32.467223
5262.000000	32.529319
5260.000000	32.596816
5258.000000	32.650331
5256.000000	32.695372
5254.000000	32.746460
5252.000000	32.796716
5250.000000	32.838564
5248.000000	32.879449
5246.000000	32.934190
5244.000000	32.999894
5242.000000	33.066883
5240.000000	33.129108
5238.000000	33.183253
5236.000000	33.231440
5234.000000	33.277623
5232.000000	33.325499
5230.000000	33.372290
5228.000000	33.413715
5226.000000	33.459187
5224.000000	33.515976
5222.000000	33.579277
5220.000000	33.636672
5218.000000	33.691109
5216.000000	33.746032
5214.000000	33.798904
5212.000000	33.841594
5210.000000	33.873424
5208.000000	33.907835
5206.000000	33.963395
5204.000000	34.035903
5202.000000	34.106179
5200.000000	34.160336
5198.000000	34.209780
5196.000000	34.264495
5194.000000	34.324331
5192.000000	34.378926
5190.000000	34.428530
5188.000000	34.476813
5186.000000	34.528667
5184.000000	34.583329
5182.000000	34.640988
5180.000000	34.698308
5178.000000	34.755698
5176.000000	34.812043
5174.000000	34.866593
5172.000000	34.919261
5170.000000	34.973666
5168.000000	35.027028
5166.000000	35.078919
5164.000000	35.130845
5162.000000	35.186232
5160.000000	35.240949
5158.000000	35.294433
5156.000000	35.348712
5154.000000	35.405315
5152.000000	35.461207
5150.000000	35.516588
5148.000000	35.571033
5146.000000	35.624082
5144.000000	35.675207
5142.000000	35.728260
5140.000000	35.782941
5138.000000	35.837790
5136.000000	35.890449
5134.000000	35.943880
5132.000000	35.998718
5130.000000	36.054684
5128.000000	36.109060
5126.000000	36.162718
5124.000000	36.215672
5122.000000	36.268690
5120.000000	36.320601
5118.000000	36.374362
5116.000000	36.429190
5114.000000	36.484655
5112.000000	36.538343
5110.000000	36.593059
5108.000000	36.647776
5106.000000	36.702325
5104.000000	36.755918
5102.000000	36.811410
5100.000000	36.867067
5098.000000	36.923568
5096.000000	36.980252
5094.000000	37.037157
5092.000000	37.092034
5090.000000	37.146637
5088.000000	37.202742
5086.000000	37.260678
5084.000000	37.317154
5082.000000	37.373059
5080.000000	37.429226
5078.000000	37.486860
5076.000000	37.542600
5074.000000	37.598198
5072.000000	37.653322
5070.000000	37.709405
5068.000000	37.765650
5066.000000	37.823342
5064.000000	37.879789
5062.000000	37.934866
5060.000000	37.989416
5058.000000	38.046042
5056.000000	38.103097
5054.000000	38.159976
5052.000000	38.215284
5050.000000	38.270992
5048.000000	38.326351
5046.000000	38.382530
5044.000000	38.438618
5042.000000	38.495288
5040.000000	38.550526
5038.000000	38.605777
5036.000000	38.661194
5034.000000	38.717519
5032.000000	38.772880
5030.000000	38.828421
5028.000000	38.883085
5026.000000	38.938118
5024.000000	38.993194
5022.000000	39.049797
5020.000000	39.105603
5018.000000	39.161409
5016.000000	39.216753
5014.000000	39.272781
5012.000000	39.329393
5010.000000	39.387384
5008.000000	39.443610
5006.000000	39.499171
5004.000000	39.555811
5002.000000	39.614834
5000.000000	39.672313
4998.000000	39.730261
4996.000000	39.788828
4994.000000	39.847819
4992.000000	39.904708
4990.000000	39.961770
4988.000000	40.018605
4986.000000	40.076695
4984.000000	40.135362
4982.000000	40.195256
4980.000000	40.254016
4978.000000	40.312225
4976.000000	40.369308
4974.000000	40.426719
4972.000000	40.482830
4970.000000	40.539525
4968.000000	40.596725
4966.000000	40.654836
4964.000000	40.712016
4962.000000	40.769597
4960.000000	40.827030
4958.000000	40.884994
4956.000000	40.941974
4954.000000	40.998701
4952.000000	41.054558
4950.000000	41.111640
4948.000000	41.167761
4946.000000	41.223790
4944.000000	41.280197
4942.000000	41.337900
4940.000000	41.394523
4938.000000	41.450109
4936.000000	41.505489
4934.000000	41.563241
4932.000000	41.620894
4930.000000	41.677743
4928.000000	41.733102
4926.000000	41.789731
4924.000000	41.847064
4922.000000	41.905788
4920.000000	41.962880
4918.000000	42.019924
4916.000000	42.077682
4914.000000	42.135951
4912.000000	42.191766
4910.000000	42.248326
4908.000000	42.306245
4906.000000	42.365525
4904.000000	42.424205
4902.000000	42.483272
4900.000000	42.541503
4898.000000	42.600293
4896.000000	42.658786
4894.000000	42.718678
4892.000000	42.777991
4890.000000	42.837210
4888.000000	42.895729
4886.000000	42.955273
4884.000000	43.014343
4882.000000	43.074196
4880.000000	43.133976
4878.000000	43.193702
4876.000000	43.251162
4874.000000	43.308846
4872.000000	43.366806
4870.000000	43.426139
4868.000000	43.484537
4866.000000	43.543192
4864.000000	43.601327
4862.000000	43.660202
4860.000000	43.717184
4858.000000	43.774537
4856.000000	43.832691
4854.000000	43.891968
4852.000000	43.948780
4850.000000	44.005610
4848.000000	44.063624
4846.000000	44.122693
4844.000000	44.180332
4842.000000	44.237533
4840.000000	44.294262
4838.000000	44.352179
4836.000000	44.410090
4834.000000	44.468103
4832.000000	44.525291
4830.000000	44.583004
4828.000000	44.640215
4826.000000	44.698818
4824.000000	44.757422
4822.000000	44.815582
4820.000000	44.872437
4818.000000	44.931336
4816.000000	44.990385
4814.000000	45.049689
4812.000000	45.108127
4810.000000	45.168010
4808.000000	45.227481
4806.000000	45.287111
4804.000000	45.346182
4802.000000	45.405851
4800.000000	45.465225
4798.000000	45.526109
4796.000000	45.587227
4794.000000	45.647953
4792.000000	45.707323
4790.000000	45.767872
4788.000000	45.827670
4786.000000	45.887445
4784.000000	45.947578
4782.000000	46.009021
4780.000000	46.068637
4778.000000	46.128508
4776.000000	46.188572
4774.000000	46.248779
4772.000000	46.307246
4770.000000	46.366340
4768.000000	46.425637
4766.000000	46.485534
4764.000000	46.543773
4762.000000	46.602469
4760.000000	46.661440
4758.000000	46.720825
4756.000000	46.778807
4754.000000	46.837285
4752.000000	46.895482
4750.000000	46.953983
4748.000000	47.011061
4746.000000	47.069302
4744.000000	47.128670
4742.000000	47.188355
4740.000000	47.245446
4738.000000	47.302973
4736.000000	47.360699
4734.000000	47.419334
4732.000000	47.477906
4730.000000	47.537044
4728.000000	47.594664
4726.000000	47.653596
4724.000000	47.713920
4722.000000	47.773866
4720.000000	47.831812
4718.000000	47.891730
4716.000000	47.953377
4714.000000	48.015378
4712.000000	48.076561
4710.000000	48.139561
4708.000000	48.202709
4706.000000	48.266164
4704.000000	48.328618
4702.000000	48.391730
4700.000000	48.454382
4698.000000	48.517341
4696.000000	48.579149
4694.000000	48.640907
4692.000000	48.702637
4690.000000	48.765104
4688.000000	48.826228
4686.000000	48.886847
4684.000000	48.946684
4682.000000	49.008354
4680.000000	49.070474
4678.000000	49.132624
4676.000000	49.192986
4674.000000	49.254562
4672.000000	49.315633
4670.000000	49.376851
4668.000000	49.437751
4666.000000	49.499539
4664.000000	49.560949
4662.000000	49.623096
4660.000000	49.683833
4658.000000	49.744673
4656.000000	49.805735
4654.000000	49.867119
4652.000000	49.927308
4650.000000	49.988874
4648.000000	50.050571
4646.000000	50.111836
4644.000000	50.171530
4642.000000	50.232483
4640.000000	50.293809
4638.000000	50.355358
4636.000000	50.416099
4634.000000	50.477781
4632.000000	50.539077
4630.000000	50.600670
4628.000000	50.661602
4626.000000	50.723595
4624.000000	50.784915
4622.000000	50.847064
4620.000000	50.909026
4618.000000	50.970873
4616.000000	51.031425
4614.000000	51.095299
4612.000000	51.160930
4610.000000	51.226554
4608.000000	51.290610
4606.000000	51.355725
4604.000000	51.420722
4602.000000	51.486380
4600.000000	51.550933
4598.000000	51.615903
4596.000000	51.680534
4594.000000	51.744809
4592.000000	51.807796
4590.000000	51.872941
4588.000000	51.938680
4586.000000	52.003717
4584.000000	52.067134
4582.000000	52.131088
4580.000000	52.194367
4578.000000	52.258312
4576.000000	52.322465
4574.000000	52.387280
4572.000000	52.450796
4570.000000	52.514150
4568.000000	52.576713
4566.000000	52.640810
4564.000000	52.704534
4562.000000	52.768114
4560.000000	52.831555
4558.000000	52.895861
4556.000000	52.958073
4554.000000	53.020504
4552.000000	53.083263
4550.000000	53.146281
4548.000000	53.208279
4546.000000	53.271809
4544.000000	53.334722
4542.000000	53.396772
4540.000000	53.458065
4538.000000	53.520924
4536.000000	53.583856
4534.000000	53.647555
4532.000000	53.710837
4530.000000	53.774496
4528.000000	53.837007
4526.000000	53.900277
4524.000000	53.963785
4522.000000	54.028116
4520.000000	54.092460
4518.000000	54.158129
4516.000000	54.222586
4514.000000	54.287345
4512.000000	54.352227
4510.000000	54.418154
4508.000000	54.483489
4506.000000	54.549400
4504.000000	54.614212
4502.000000	54.679378
4500.000000	54.744912
4498.000000	54.811602
4496.000000	54.876688
4494.000000	54.942263
4492.000000	55.007786
4490.000000	55.073108
4488.000000	55.137277
4486.000000	55.203054
4484.000000	55.268169
4482.000000	55.332476
4480.000000	55.395492
4478.000000	55.459398
4476.000000	55.523277
4474.000000	55.587290
4472.000000	55.650621
4470.000000	55.714884
4468.000000	55.777542
4466.000000	55.840214
4464.000000	55.903688
4462.000000	55.967587
4460.000000	56.029661
4458.000000	56.091347
4456.000000	56.152130
4454.000000	56.214983
4452.000000	56.277838
4450.000000	56.339937
4448.000000	56.401406
4446.000000	56.464347
4444.000000	56.527188
4442.000000	56.590771
4440.000000	56.653130
4438.000000	56.715451
4436.000000	56.777844
4434.000000	56.841451
4432.000000	56.904045
4430.000000	56.966657
4428.000000	57.029788
4426.000000	57.095285
4424.000000	57.159798
4422.000000	57.223107
4420.000000	57.285439
4418.000000	57.349543
4416.000000	57.414469
4414.000000	57.480657
4412.000000	57.545742
4410.000000	57.610157
4408.000000	57.673427
4406.000000	57.738099
4404.000000	57.803143
4402.000000	57.868071
4400.000000	57.931532
4398.000000	57.995557
4396.000000	58.058405
4394.000000	58.121101
4392.000000	58.183868
4390.000000	58.247749
4388.000000	58.309931
4386.000000	58.371568
4384.000000	58.433404
4382.000000	58.497164
4380.000000	58.559389
4378.000000	58.619817
4376.000000	58.678444
4374.000000	58.738286
4372.000000	58.798640
4370.000000	58.859716
4368.000000	58.919942
4366.000000	58.980569
4364.000000	59.040794
4362.000000	59.101713
4360.000000	59.162288
4358.000000	59.224541
4356.000000	59.287392
4354.000000	59.350702
4352.000000	59.413262
4350.000000	59.477038
4348.000000	59.541027
4346.000000	59.605275
4344.000000	59.668320
4342.000000	59.732581
4340.000000	59.796254
4338.000000	59.859097
4336.000000	59.921634
4334.000000	59.986111
4332.000000	60.050217
4330.000000	60.114526
4328.000000	60.178416
4326.000000	60.243588
4324.000000	60.309869
4322.000000	60.377771
4320.000000	60.444529
4318.000000	60.511710
4316.000000	60.579349
4314.000000	60.647897
4312.000000	60.715557
4310.000000	60.783432
4308.000000	60.849686
4306.000000	60.916224
4304.000000	60.982686
4302.000000	61.049133
4300.000000	61.114298
4298.000000	61.180782
4296.000000	61.246993
4294.000000	61.311907
4292.000000	61.375172
4290.000000	61.439590
4288.000000	61.502647
4286.000000	61.565349
4284.000000	61.627190
4282.000000	61.687756
4280.000000	61.747359
4278.000000	61.807639
4276.000000	61.866077
4274.000000	61.925048
4272.000000	61.983923
4270.000000	62.042857
4268.000000	62.102651
4266.000000	62.165367
4264.000000	62.227427
4262.000000	62.288804
4260.000000	62.350680
4258.000000	62.413769
4256.000000	62.476007
4254.000000	62.539347
4252.000000	62.602797
4250.000000	62.667703
4248.000000	62.732340
4246.000000	62.796156
4244.000000	62.859222
4242.000000	62.924051
4240.000000	62.989062
4238.000000	63.054260
4236.000000	63.118320
4234.000000	63.183522
4232.000000	63.249085
4230.000000	63.314948
4228.000000	63.379787
4226.000000	63.444265
4224.000000	63.506881
4222.000000	63.569685
4220.000000	63.633320
4218.000000	63.699211
4216.000000	63.764352
4214.000000	63.829018
4212.000000	63.893627
4210.000000	63.960397
4208.000000	64.027560
4206.000000	64.094328
4204.000000	64.160052
4202.000000	64.227834
4200.000000	64.296382
4198.000000	64.365676
4196.000000	64.434282
4194.000000	64.503494
4192.000000	64.572364
4190.000000	64.640692
4188.000000	64.707751
4186.000000	64.776205
4184.000000	64.843666
4182.000000	64.909180
4180.000000	64.973610
4178.000000	65.039288
4176.000000	65.104024
4174.000000	65.168740
4172.000000	65.233372
4170.000000	65.298531
4168.000000	65.363561
4166.000000	65.429393
4164.000000	65.493219
4162.000000	65.556787
4160.000000	65.620443
4158.000000	65.684629
4156.000000	65.749037
4154.000000	65.814649
4152.000000	65.879455
4150.000000	65.944411
4148.000000	66.008429
4146.000000	66.073933
4144.000000	66.140686
4142.000000	66.206642
4140.000000	66.269927
4138.000000	66.334653
4136.000000	66.399957
4134.000000	66.466057
4132.000000	66.532835
4130.000000	66.600276
4128.000000	66.665702
4126.000000	66.731102
4124.000000	66.797692
4122.000000	66.865297
4120.000000	66.931353
4118.000000	66.997848
4116.000000	67.064262
4114.000000	67.130310
4112.000000	67.194210
4110.000000	67.257827
4108.000000	67.320948
4106.000000	67.385244
4104.000000	67.451253
4102.000000	67.518373
4100.000000	67.583195
4098.000000	67.646603
4096.000000	67.710016
4094.000000	67.774999
4092.000000	67.839812
4090.000000	67.905938
4088.000000	67.973292
4086.000000	68.044016
4084.000000	68.115622
4082.000000	68.183850
4080.000000	68.249370
4078.000000	68.317517
4076.000000	68.385165
4074.000000	68.451431
4072.000000	68.516827
4070.000000	68.582436
4068.000000	68.647494
4066.000000	68.713525
4064.000000	68.778780
4062.000000	68.842606
4060.000000	68.906691
4058.000000	68.973347
4056.000000	69.038998
4054.000000	69.104096
4052.000000	69.168287
4050.000000	69.231620
4048.000000	69.291414
4046.000000	69.350446
4044.000000	69.415509
4042.000000	69.486755
4040.000000	69.556478
4038.000000	69.624318
4036.000000	69.690668
4034.000000	69.756945
4032.000000	69.823817
4030.000000	69.891995
4028.000000	69.957860
4026.000000	70.023098
4024.000000	70.091242
4022.000000	70.160419
4020.000000	70.227237
4018.000000	70.296404
4016.000000	70.366054
4014.000000	70.434506
4012.000000	70.502118
4010.000000	70.569045
4008.000000	70.637280
4006.000000	70.709525
4004.000000	70.780475
4002.000000	70.849549
4000.000000	70.916712
3998.000000	70.980420
3996.000000	71.040681
3994.000000	71.102001
3992.000000	71.165218
3990.000000	71.233243
3988.000000	71.303047
3986.000000	71.368860
3984.000000	71.429482
3982.000000	71.491091
3980.000000	71.554403
3978.000000	71.613253
3976.000000	71.666975
3974.000000	71.727214
3972.000000	71.793220
3970.000000	71.859556
3968.000000	71.926780
3966.000000	71.989176
3964.000000	72.038233
3962.000000	72.090445
3960.000000	72.155946
3958.000000	72.223730
3956.000000	72.286414
3954.000000	72.338522
3952.000000	72.367536
3950.000000	72.392372
3948.000000	72.450291
3946.000000	72.518125
3944.000000	72.563194
3942.000000	72.638648
3940.000000	72.753722
3938.000000	72.846829
3936.000000	72.876099
3934.000000	72.857213
3932.000000	72.883427
3930.000000	72.994575
3928.000000	73.091873
3926.000000	73.134537
3924.000000	73.187426
3922.000000	73.238878
3920.000000	73.236913
3918.000000	73.260283
3916.000000	73.404833
3914.000000	73.597446
3912.000000	73.724857
3910.000000	73.774553
3908.000000	73.692519
3906.000000	73.450635
3904.000000	73.245040
3902.000000	73.255116
3900.000000	73.472192
3898.000000	73.815276
3896.000000	74.066045
3894.000000	74.033652
3892.000000	73.934671
3890.000000	74.005470
3888.000000	73.994569
3886.000000	73.920466
3884.000000	74.059572
3882.000000	74.222543
3880.000000	74.360929
3878.000000	74.543242
3876.000000	74.583471
3874.000000	74.452321
3872.000000	74.201078
3870.000000	74.109507
3868.000000	74.326069
3866.000000	74.503506
3864.000000	74.625064
3862.000000	74.864401
3860.000000	75.063610
3858.000000	74.792909
3856.000000	73.819366
3854.000000	73.132504
3852.000000	73.728718
3850.000000	74.869373
3848.000000	75.502565
3846.000000	75.587237
3844.000000	75.473484
3842.000000	75.260915
3840.000000	74.863171
3838.000000	74.666923
3836.000000	75.013904
3834.000000	75.479979
3832.000000	75.764146
3830.000000	75.973892
3828.000000	76.103298
3826.000000	76.119898
3824.000000	75.899257
3822.000000	75.618167
3820.000000	75.621550
3818.000000	75.605175
3816.000000	75.670427
3814.000000	76.200487
3812.000000	76.671631
3810.000000	76.601603
3808.000000	76.305665
3806.000000	76.271066
3804.000000	76.182896
3802.000000	75.987756
3800.000000	76.271287
3798.000000	76.751419
3796.000000	77.042644
3794.000000	77.276049
3792.000000	77.439727
3790.000000	77.513078
3788.000000	77.537722
3786.000000	77.550395
3784.000000	77.581347
3782.000000	77.570117
3780.000000	77.552601
3778.000000	77.678328
3776.000000	77.859525
3774.000000	77.899743
3772.000000	77.760120
3770.000000	77.662537
3768.000000	77.747817
3766.000000	77.900661
3764.000000	78.039958
3762.000000	78.051716
3760.000000	77.983815
3758.000000	78.026177
3756.000000	77.936256
3754.000000	77.359340
3752.000000	76.721059
3750.000000	76.728398
3748.000000	76.979777
3746.000000	76.765691
3744.000000	76.920581
3742.000000	77.830308
3740.000000	78.319546
3738.000000	78.074009
3736.000000	77.827393
3734.000000	77.936638
3732.000000	78.308976
3730.000000	78.744919
3728.000000	78.937656
3726.000000	78.962415
3724.000000	79.033540
3722.000000	79.156985
3720.000000	79.315584
3718.000000	79.452476
3716.000000	79.390211
3714.000000	79.025973
3712.000000	78.779551
3710.000000	79.026644
3708.000000	79.491330
3706.000000	79.773573
3704.000000	79.776536
3702.000000	79.745758
3700.000000	79.890555
3698.000000	80.064457
3696.000000	80.118259
3694.000000	79.986270
3692.000000	79.572383
3690.000000	79.100835
3688.000000	79.215440
3686.000000	79.880861
3684.000000	80.341927
3682.000000	80.395540
3680.000000	80.160714
3678.000000	79.580459
3676.000000	79.150339
3674.000000	79.308134
3672.000000	79.432791
3670.000000	79.559879
3668.000000	80.115134
3666.000000	80.641032
3664.000000	80.841749
3662.000000	80.875494
3660.000000	80.774061
3658.000000	80.515962
3656.000000	80.417740
3654.000000	80.438859
3652.000000	80.058471
3650.000000	79.607957
3648.000000	79.808572
3646.000000	80.447152
3644.000000	80.903131
3642.000000	81.060038
3640.000000	81.101522
3638.000000	81.105875
3636.000000	81.062980
3634.000000	80.940289
3632.000000	80.531285
3630.000000	80.003455
3628.000000	80.127676
3626.000000	80.757063
3624.000000	81.072867
3622.000000	80.906452
3620.000000	80.651803
3618.000000	80.690667
3616.000000	80.839707
3614.000000	80.826728
3612.000000	80.729901
3610.000000	80.661759
3608.000000	80.776414
3606.000000	81.041364
3604.000000	81.190960
3602.000000	81.181691
3600.000000	81.146951
3598.000000	81.114710
3596.000000	81.071939
3594.000000	81.083780
3592.000000	81.069556
3590.000000	80.874004
3588.000000	80.712668
3586.000000	80.850001
3584.000000	81.091769
3582.000000	81.201194
3580.000000	81.212846
3578.000000	81.209835
3576.000000	81.208094
3574.000000	81.206758
3572.000000	81.147803
3570.000000	80.939400
3568.000000	80.728709
3566.000000	80.774762
3564.000000	80.971169
3562.000000	81.086397
3560.000000	81.123733
3558.000000	81.146670
3556.000000	81.136938
3554.000000	81.089732
3552.000000	81.063192
3550.000000	81.047336
3548.000000	80.978727
3546.000000	80.927660
3544.000000	80.969296
3542.000000	81.038173
3540.000000	81.056159
3538.000000	81.026115
3536.000000	81.001617
3534.000000	80.995893
3532.000000	80.960846
3530.000000	80.890586
3528.000000	80.826052
3526.000000	80.779136
3524.000000	80.744806
3522.000000	80.738046
3520.000000	80.738408
3518.000000	80.721511
3516.000000	80.693920
3514.000000	80.651530
3512.000000	80.587194
3510.000000	80.525524
3508.000000	80.487355
3506.000000	80.429060
3504.000000	80.342374
3502.000000	80.294347
3500.000000	80.278983
3498.000000	80.239719
3496.000000	80.185059
3494.000000	80.139253
3492.000000	80.090875
3490.000000	80.029497
3488.000000	79.971067
3486.000000	79.928051
3484.000000	79.882225
3482.000000	79.841311
3480.000000	79.830376
3478.000000	79.834953
3476.000000	79.834938
3474.000000	79.838220
3472.000000	79.847062
3470.000000	79.852218
3468.000000	79.863744
3466.000000	79.893966
3464.000000	79.931600
3462.000000	79.968541
3460.000000	80.009666
3458.000000	80.050661
3456.000000	80.085974
3454.000000	80.115506
3452.000000	80.137581
3450.000000	80.139354
3448.000000	80.130878
3446.000000	80.155838
3444.000000	80.210747
3442.000000	80.273851
3440.000000	80.349493
3438.000000	80.435649
3436.000000	80.534698
3434.000000	80.655886
3432.000000	80.796144
3430.000000	80.940321
3428.000000	81.082983
3426.000000	81.220018
3424.000000	81.339519
3422.000000	81.443514
3420.000000	81.553502
3418.000000	81.669258
3416.000000	81.769706
3414.000000	81.851451
3412.000000	81.924040
3410.000000	81.990415
3408.000000	82.051537
3406.000000	82.108111
3404.000000	82.157205
3402.000000	82.201149
3400.000000	82.255668
3398.000000	82.331957
3396.000000	82.414557
3394.000000	82.481423
3392.000000	82.545172
3390.000000	82.626860
3388.000000	82.707636
3386.000000	82.770994
3384.000000	82.829807
3382.000000	82.889221
3380.000000	82.945158
3378.000000	82.997316
3376.000000	83.047790
3374.000000	83.094813
3372.000000	83.131309
3370.000000	83.159328
3368.000000	83.197421
3366.000000	83.250172
3364.000000	83.305022
3362.000000	83.353375
3360.000000	83.399362
3358.000000	83.445332
3356.000000	83.488847
3354.000000	83.530767
3352.000000	83.569314
3350.000000	83.608669
3348.000000	83.656174
3346.000000	83.703150
3344.000000	83.743642
3342.000000	83.780998
3340.000000	83.815138
3338.000000	83.850018
3336.000000	83.894022
3334.000000	83.941396
3332.000000	83.985062
3330.000000	84.023363
3328.000000	84.055770
3326.000000	84.087268
3324.000000	84.126506
3322.000000	84.170550
3320.000000	84.211917
3318.000000	84.248158
3316.000000	84.280773
3314.000000	84.312427
3312.000000	84.342921
3310.000000	84.367992
3308.000000	84.390821
3306.000000	84.419377
3304.000000	84.463805
3302.000000	84.517999
3300.000000	84.562859
3298.000000	84.596416
3296.000000	84.627535
3294.000000	84.656614
3292.000000	84.688402
3290.000000	84.731717
3288.000000	84.779392
3286.000000	84.822339
3284.000000	84.860890
3282.000000	84.898632
3280.000000	84.936559
3278.000000	84.970304
3276.000000	85.002072
3274.000000	85.035910
3272.000000	85.072979
3270.000000	85.117928
3268.000000	85.170574
3266.000000	85.219235
3264.000000	85.264069
3262.000000	85.308896
3260.000000	85.352931
3258.000000	85.393731
3256.000000	85.433754
3254.000000	85.481011
3252.000000	85.535444
3250.000000	85.585754
3248.000000	85.627835
3246.000000	85.668911
3244.000000	85.721748
3242.000000	85.779696
3240.000000	85.833169
3238.000000	85.881916
3236.000000	85.924843
3234.000000	85.965339
3232.000000	86.016484
3230.000000	86.075469
3228.000000	86.130761
3226.000000	86.182937
3224.000000	86.232863
3222.000000	86.277793
3220.000000	86.322642
3218.000000	86.372181
3216.000000	86.421417
3214.000000	86.469932
3212.000000	86.522870
3210.000000	86.577737
3208.000000	86.636755
3206.000000	86.701301
3204.000000	86.770190
3202.000000	86.839117
3200.000000	86.906656
3198.000000	86.976015
3196.000000	87.052347
3194.000000	87.130924
3192.000000	87.205607
3190.000000	87.277167
3188.000000	87.346463
3186.000000	87.414489
3184.000000	87.486928
3182.000000	87.559564
3180.000000	87.627920
3178.000000	87.697460
3176.000000	87.774268
3174.000000	87.851005
3172.000000	87.924079
3170.000000	87.996719
3168.000000	88.071794
3166.000000	88.147803
3164.000000	88.224033
3162.000000	88.300395
3160.000000	88.379649
3158.000000	88.459489
3156.000000	88.536572
3154.000000	88.606409
3152.000000	88.678629
3150.000000	88.763935
3148.000000	88.849817
3146.000000	88.927864
3144.000000	89.003336
3142.000000	89.075986
3140.000000	89.145651
3138.000000	89.216506
3136.000000	89.287745
3134.000000	89.353610
3132.000000	89.421567
3130.000000	89.490843
3128.000000	89.555939
3126.000000	89.618151
3124.000000	89.676441
3122.000000	89.726029
3120.000000	89.771778
3118.000000	89.820735
3116.000000	89.878644
3114.000000	89.945204
3112.000000	90.008952
3110.000000	90.060742
3108.000000	90.112098
3106.000000	90.172929
3104.000000	90.233942
3102.000000	90.290155
3100.000000	90.353058
3098.000000	90.421256
3096.000000	90.489081
3094.000000	90.557486
3092.000000	90.622761
3090.000000	90.681421
3088.000000	90.739378
3086.000000	90.793162
3084.000000	90.840533
3082.000000	90.882417
3080.000000	90.918908
3078.000000	90.957062
3076.000000	91.001835
3074.000000	91.037379
3072.000000	91.057361
3070.000000	91.067151
3068.000000	91.072429
3066.000000	91.086216
3064.000000	91.122819
3062.000000	91.176231
3060.000000	91.233254
3058.000000	91.288734
3056.000000	91.349374
3054.000000	91.414980
3052.000000	91.473802
3050.000000	91.524616
3048.000000	91.574717
3046.000000	91.617296
3044.000000	91.647615
3042.000000	91.671488
3040.000000	91.698372
3038.000000	91.720518
3036.000000	91.729758
3034.000000	91.726746
3032.000000	91.715390
3030.000000	91.687980
3028.000000	91.626369
3026.000000	91.520479
3024.000000	91.391262
3022.000000	91.274512
3020.000000	91.211000
3018.000000	91.238571
3016.000000	91.376505
3014.000000	91.607238
3012.000000	91.891324
3010.000000	92.174010
3008.000000	92.405685
3006.000000	92.568943
3004.000000	92.683335
3002.000000	92.766029
3000.000000	92.824956
2998.000000	92.865289
2996.000000	92.896883
2994.000000	92.917949
2992.000000	92.928313
2990.000000	92.930669
2988.000000	92.918495
2986.000000	92.885528
2984.000000	92.829125
2982.000000	92.741057
2980.000000	92.618505
2978.000000	92.454029
2976.000000	92.229835
2974.000000	91.925896
2972.000000	91.532960
2970.000000	91.053231
2968.000000	90.529159
2966.000000	90.044454
2964.000000	89.688582
2962.000000	89.515614
2960.000000	89.529352
2958.000000	89.673186
2956.000000	89.868341
2954.000000	90.054357
2952.000000	90.199399
2950.000000	90.272078
2948.000000	90.237217
2946.000000	90.073744
2944.000000	89.781650
2942.000000	89.372786
2940.000000	88.882408
2938.000000	88.370192
2936.000000	87.897481
2934.000000	87.476989
2932.000000	87.080384
2930.000000	86.691109
2928.000000	86.363701
2926.000000	86.201088
2924.000000	86.309053
2922.000000	86.727342
2920.000000	87.401646
2918.000000	88.217600
2916.000000	89.067576
2914.000000	89.869205
2912.000000	90.563675
2910.000000	91.120870
2908.000000	91.554294
2906.000000	91.903478
2904.000000	92.206206
2902.000000	92.481924
2900.000000	92.738621
2898.000000	92.977638
2896.000000	93.203215
2894.000000	93.419145
2892.000000	93.625731
2890.000000	93.814135
2888.000000	93.976699
2886.000000	94.105084
2884.000000	94.194674
2882.000000	94.239382
2880.000000	94.238192
2878.000000	94.186558
2876.000000	94.075100
2874.000000	93.894510
2872.000000	93.640450
2870.000000	93.284419
2868.000000	92.801340
2866.000000	92.225808
2864.000000	91.683737
2862.000000	91.330843
2860.000000	91.256898
2858.000000	91.425269
2856.000000	91.728207
2854.000000	92.085459
2852.000000	92.497058
2850.000000	93.002509
2848.000000	93.605945
2846.000000	94.228132
2844.000000	94.773529
2842.000000	95.206467
2840.000000	95.544397
2838.000000	95.814568
2836.000000	96.038611
2834.000000	96.223351
2832.000000	96.379957
2830.000000	96.514900
2828.000000	96.636503
2826.000000	96.748159
2824.000000	96.851392
2822.000000	96.944932
2820.000000	97.030723
2818.000000	97.109329
2816.000000	97.182154
2814.000000	97.246226
2812.000000	97.304806
2810.000000	97.358741
2808.000000	97.410014
2806.000000	97.457992
2804.000000	97.505606
2802.000000	97.549794
2800.000000	97.591996
2798.000000	97.632868
2796.000000	97.675245
2794.000000	97.718596
2792.000000	97.766368
2790.000000	97.821787
2788.000000	97.891776
2786.000000	97.973066
2784.000000	98.058367
2782.000000	98.140022
2780.000000	98.217061
2778.000000	98.285455
2776.000000	98.346892
2774.000000	98.404198
2772.000000	98.461023
2770.000000	98.514019
2768.000000	98.564792
2766.000000	98.613052
2764.000000	98.662084
2762.000000	98.710090
2760.000000	98.756340
2758.000000	98.799819
2756.000000	98.843693
2754.000000	98.884864
2752.000000	98.924862
2750.000000	98.962399
2748.000000	98.999574
2746.000000	99.034720
2744.000000	99.071544
2742.000000	99.108123
2740.000000	99.142897
2738.000000	99.176288
2736.000000	99.213005
2734.000000	99.248568
2732.000000	99.282514
2730.000000	99.314913
2728.000000	99.348265
2726.000000	99.380588
2724.000000	99.414102
2722.000000	99.445772
2720.000000	99.477805
2718.000000	99.507021
2716.000000	99.536276
2714.000000	99.564749
2712.000000	99.592035
2710.000000	99.617073
2708.000000	99.642432
2706.000000	99.667807
2704.000000	99.697873
2702.000000	99.732872
2700.000000	99.776321
2698.000000	99.822951
2696.000000	99.870611
2694.000000	99.916277
2692.000000	99.961260
2690.000000	100.002749
2688.000000	100.044194
2686.000000	100.084366
2684.000000	100.123465
2682.000000	100.159878
2680.000000	100.196883
2678.000000	100.231632
2676.000000	100.265318
2674.000000	100.295316
2672.000000	100.324916
2670.000000	100.354395
2668.000000	100.385092
2666.000000	100.414702
2664.000000	100.445671
2662.000000	100.474099
2660.000000	100.502568
2658.000000	100.532118
2656.000000	100.566740
2654.000000	100.602893
2652.000000	100.642782
2650.000000	100.683476
2648.000000	100.723520
2646.000000	100.760907
2644.000000	100.799054
2642.000000	100.835670
2640.000000	100.872313
2638.000000	100.906672
2636.000000	100.940349
2634.000000	100.973142
2632.000000	101.005371
2630.000000	101.033764
2628.000000	101.062767
2626.000000	101.090795
2624.000000	101.119272
2622.000000	101.146309
2620.000000	101.175110
2618.000000	101.201767
2616.000000	101.228438
2614.000000	101.253554
2612.000000	101.279146
2610.000000	101.301172
2608.000000	101.320921
2606.000000	101.336637
2604.000000	101.351653
2602.000000	101.365153
2600.000000	101.376390
2598.000000	101.384134
2596.000000	101.394756
2594.000000	101.408891
2592.000000	101.431687
2590.000000	101.464871
2588.000000	101.508617
2586.000000	101.558406
2584.000000	101.616881
2582.000000	101.679511
2580.000000	101.742839
2578.000000	101.799395
2576.000000	101.851986
2574.000000	101.899071
2572.000000	101.942525
2570.000000	101.981810
2568.000000	102.019191
2566.000000	102.052426
2564.000000	102.084923
2562.000000	102.114843
2560.000000	102.145166
2558.000000	102.173496
2556.000000	102.201466
2554.000000	102.226630
2552.000000	102.253566
2550.000000	102.279255
2548.000000	102.304968
2546.000000	102.329094
2544.000000	102.355105
2542.000000	102.382729
2540.000000	102.410848
2538.000000	102.435502
2536.000000	102.462063
2534.000000	102.488253
2532.000000	102.515042
2530.000000	102.539973
2528.000000	102.565652
2526.000000	102.590048
2524.000000	102.615143
2522.000000	102.638532
2520.000000	102.661613
2518.000000	102.683784
2516.000000	102.709007
2514.000000	102.732393
2512.000000	102.754971
2510.000000	102.775135
2508.000000	102.796261
2506.000000	102.816200
2504.000000	102.837978
2502.000000	102.858776
2500.000000	102.881556
2498.000000	102.904915
2496.000000	102.931112
2494.000000	102.957196
2492.000000	102.984214
2490.000000	103.009087
2488.000000	103.035398
2486.000000	103.060421
2484.000000	103.086415
2482.000000	103.110751
2480.000000	103.137050
2478.000000	103.160934
2476.000000	103.183570
2474.000000	103.204006
2472.000000	103.224340
2470.000000	103.241155
2468.000000	103.259713
2466.000000	103.276580
2464.000000	103.294237
2462.000000	103.310192
2460.000000	103.326222
2458.000000	103.341137
2456.000000	103.358663
2454.000000	103.374118
2452.000000	103.390039
2450.000000	103.405349
2448.000000	103.423026
2446.000000	103.439027
2444.000000	103.455835
2442.000000	103.470231
2440.000000	103.485622
2438.000000	103.498781
2436.000000	103.512732
2434.000000	103.525981
2432.000000	103.540353
2430.000000	103.551574
2428.000000	103.563223
2426.000000	103.575019
2424.000000	103.590855
2422.000000	103.605051
2420.000000	103.619633
2418.000000	103.632515
2416.000000	103.646004
2414.000000	103.656590
2412.000000	103.667492
2410.000000	103.678070
2408.000000	103.691150
2406.000000	103.703271
2404.000000	103.716820
2402.000000	103.729454
2400.000000	103.745852
2398.000000	103.762845
2396.000000	103.781527
2394.000000	103.798419
2392.000000	103.817001
2390.000000	103.832054
2388.000000	103.843864
2386.000000	103.846521
2384.000000	103.838228
2382.000000	103.804623
2380.000000	103.737395
2378.000000	103.624554
2376.000000	103.464202
2374.000000	103.257896
2372.000000	103.019995
2370.000000	102.765749
2368.000000	102.525032
2366.000000	102.323686
2364.000000	102.191326
2362.000000	102.146047
2360.000000	102.201763
2358.000000	102.356231
2356.000000	102.605358
2354.000000	102.929235
2352.000000	103.291132
2350.000000	103.554110
2348.000000	103.541710
2346.000000	103.306252
2344.000000	103.055270
2342.000000	102.873072
2340.000000	102.768573
2338.000000	102.722202
2336.000000	102.721586
2334.000000	102.752728
2332.000000	102.815521
2330.000000	102.904854
2328.000000	103.015339
2326.000000	103.134616
2324.000000	103.259184
2322.000000	103.379914
2320.000000	103.497066
2318.000000	103.604410
2316.000000	103.702005
2314.000000	103.785882
2312.000000	103.860797
2310.000000	103.921464
2308.000000	103.974094
2306.000000	104.016762
2304.000000	104.053272
2302.000000	104.081697
2300.000000	104.106581
2298.000000	104.125702
2296.000000	104.143831
2294.000000	104.158345
2292.000000	104.174553
2290.000000	104.186335
2288.000000	104.197282
2286.000000	104.204500
2284.000000	104.210567
2282.000000	104.210053
2280.000000	104.208361
2278.000000	104.202013
2276.000000	104.197613
2274.000000	104.191837
2272.000000	104.187953
2270.000000	104.181789
2268.000000	104.176964
2266.000000	104.169685
2264.000000	104.166259
2262.000000	104.162469
2260.000000	104.161631
2258.000000	104.160110
2256.000000	104.161607
2254.000000	104.162369
2252.000000	104.166206
2250.000000	104.170300
2248.000000	104.179725
2246.000000	104.187984
2244.000000	104.200161
2242.000000	104.210234
2240.000000	104.222708
2238.000000	104.235263
2236.000000	104.250415
2234.000000	104.262041
2232.000000	104.275551
2230.000000	104.287168
2228.000000	104.300806
2226.000000	104.311269
2224.000000	104.322069
2222.000000	104.329934
2220.000000	104.338737
2218.000000	104.344355
2216.000000	104.351256
2214.000000	104.355038
2212.000000	104.359699
2210.000000	104.364074
2208.000000	104.370401
2206.000000	104.372528
2204.000000	104.378640
2202.000000	104.383153
2200.000000	104.388618
2198.000000	104.390635
2196.000000	104.393890
2194.000000	104.394690
2192.000000	104.396677
2190.000000	104.395234
2188.000000	104.395107
2186.000000	104.393868
2184.000000	104.395518
2182.000000	104.392517
2180.000000	104.391783
2178.000000	104.388288
2176.000000	104.386819
2174.000000	104.378222
2172.000000	104.356207
2170.000000	104.329615
2168.000000	104.339611
2166.000000	104.362226
2164.000000	104.372050
2162.000000	104.371143
2160.000000	104.369162
2158.000000	104.365639
2156.000000	104.367256
2154.000000	104.365031
2152.000000	104.363448
2150.000000	104.359392
2148.000000	104.359363
2146.000000	104.357687
2144.000000	104.357976
2142.000000	104.355653
2140.000000	104.355118
2138.000000	104.349857
2136.000000	104.347755
2134.000000	104.347430
2132.000000	104.348496
2130.000000	104.345562
2128.000000	104.344485
2126.000000	104.341742
2124.000000	104.342752
2122.000000	104.343503
2120.000000	104.346151
2118.000000	104.346962
2116.000000	104.350458
2114.000000	104.356076
2112.000000	104.367021
2110.000000	104.377072
2108.000000	104.390282
2106.000000	104.400701
2104.000000	104.413812
2102.000000	104.424967
2100.000000	104.437902
2098.000000	104.447417
2096.000000	104.460047
2094.000000	104.471205
2092.000000	104.483063
2090.000000	104.492512
2088.000000	104.512200
2086.000000	104.528182
2084.000000	104.545681
2082.000000	104.558046
2080.000000	104.575038
2078.000000	104.588549
2076.000000	104.605400
2074.000000	104.621035
2072.000000	104.642398
2070.000000	104.660162
2068.000000	104.674622
2066.000000	104.676473
2064.000000	104.697956
2062.000000	104.730962
2060.000000	104.758452
2058.000000	104.778840
2056.000000	104.801912
2054.000000	104.821567
2052.000000	104.843497
2050.000000	104.861368
2048.000000	104.882423
2046.000000	104.897659
2044.000000	104.911607
2042.000000	104.920110
2040.000000	104.943856
2038.000000	104.964913
2036.000000	104.978663
2034.000000	104.985765
2032.000000	104.986705
2030.000000	104.967846
2028.000000	104.978069
2026.000000	105.012735
2024.000000	105.035366
2022.000000	105.042096
2020.000000	105.038075
2018.000000	105.022838
2016.000000	105.047486
2014.000000	105.093703
2012.000000	105.123134
2010.000000	105.136482
2008.000000	105.151621
2006.000000	105.163809
2004.000000	105.176134
2002.000000	105.181247
2000.000000	105.184590
1998.000000	105.187004
1996.000000	105.187050
1994.000000	105.134754
1992.000000	105.089350
1990.000000	105.124695
1988.000000	105.164620
1986.000000	105.178655
1984.000000	105.180724
1982.000000	105.170527
1980.000000	105.159690
1978.000000	105.145525
1976.000000	105.131250
1974.000000	105.112130
1972.000000	105.093843
1970.000000	105.049347
1968.000000	104.981018
1966.000000	104.964901
1964.000000	104.982592
1962.000000	104.930926
1960.000000	104.810290
1958.000000	104.778125
1956.000000	104.857394
1954.000000	104.885122
1952.000000	104.868602
1950.000000	104.834169
1948.000000	104.805942
1946.000000	104.748123
1944.000000	104.634927
1942.000000	104.589838
1940.000000	104.682177
1938.000000	104.715833
1936.000000	104.697662
1934.000000	104.665041
1932.000000	104.641338
1930.000000	104.613242
1928.000000	104.586195
1926.000000	104.520168
1924.000000	104.407234
1922.000000	104.345631
1920.000000	104.232008
1918.000000	104.082422
1916.000000	104.205010
1914.000000	104.293926
1912.000000	104.232276
1910.000000	104.132398
1908.000000	104.099241
1906.000000	104.080385
1904.000000	104.043032
1902.000000	103.987254
1900.000000	103.943177
1898.000000	103.874298
1896.000000	103.797181
1894.000000	103.762703
1892.000000	103.703718
1890.000000	103.572549
1888.000000	103.621550
1886.000000	103.699693
1884.000000	103.703437
1882.000000	103.686294
1880.000000	103.670375
1878.000000	103.642379
1876.000000	103.625320
1874.000000	103.584223
1872.000000	103.413047
1870.000000	103.063864
1868.000000	103.027900
1866.000000	103.279626
1864.000000	103.413557
1862.000000	103.401070
1860.000000	103.368279
1858.000000	103.334442
1856.000000	103.316112
1854.000000	103.280208
1852.000000	103.242044
1850.000000	103.152291
1848.000000	102.976879
1846.000000	102.490643
1844.000000	102.193977
1842.000000	102.617514
1840.000000	102.907930
1838.000000	102.857297
1836.000000	102.807661
1834.000000	102.733191
1832.000000	102.434995
1830.000000	102.132942
1828.000000	102.204875
1826.000000	102.172508
1824.000000	102.199006
1822.000000	102.343386
1820.000000	102.332539
1818.000000	102.239970
1816.000000	102.181960
1814.000000	102.083174
1812.000000	101.895487
1810.000000	101.783378
1808.000000	101.789717
1806.000000	101.733529
1804.000000	101.542572
1802.000000	101.237803
1800.000000	101.096416
1798.000000	101.125573
1796.000000	100.991304
1794.000000	100.399928
1792.000000	100.078145
1790.000000	100.461669
1788.000000	100.675808
1786.000000	100.453102
1784.000000	100.307929
1782.000000	100.221510
1780.000000	100.122559
1778.000000	100.083224
1776.000000	99.775619
1774.000000	98.928463
1772.000000	98.508231
1770.000000	98.917234
1768.000000	99.156729
1766.000000	99.398826
1764.000000	99.242473
1762.000000	98.850239
1760.000000	98.902911
1758.000000	98.834826
1756.000000	98.705432
1754.000000	98.491236
1752.000000	97.749026
1750.000000	97.512153
1748.000000	97.763203
1746.000000	97.859488
1744.000000	97.720480
1742.000000	97.363421
1740.000000	97.012808
1738.000000	96.991015
1736.000000	96.064807
1734.000000	95.110643
1732.000000	96.026164
1730.000000	96.903718
1728.000000	97.131188
1726.000000	97.135036
1724.000000	97.032537
1722.000000	96.851832
1720.000000	95.955923
1718.000000	94.707525
1716.000000	94.951995
1714.000000	95.890855
1712.000000	96.366026
1710.000000	96.323615
1708.000000	95.981177
1706.000000	95.555281
1704.000000	95.328607
1702.000000	94.162815
1700.000000	93.293532
1698.000000	93.625312
1696.000000	93.542210
1694.000000	94.643493
1692.000000	95.614661
1690.000000	95.551678
1688.000000	95.065593
1686.000000	93.480550
1684.000000	92.876465
1682.000000	94.309598
1680.000000	95.143087
1678.000000	94.970280
1676.000000	94.291883
1674.000000	94.294654
1672.000000	94.365981
1670.000000	93.945938
1668.000000	94.213434
1666.000000	94.607461
1664.000000	94.273160
1662.000000	94.108384
1660.000000	94.382912
1658.000000	94.290396
1656.000000	92.972652
1654.000000	90.512477
1652.000000	90.701196
1650.000000	92.657281
1648.000000	92.536806
1646.000000	92.187052
1644.000000	92.936387
1642.000000	93.378383
1640.000000	93.138400
1638.000000	92.234427
1636.000000	91.174644
1634.000000	91.657293
1632.000000	92.449807
1630.000000	92.291503
1628.000000	91.868774
1626.000000	91.448052
1624.000000	90.811931
1622.000000	90.512804
1620.000000	90.151550
1618.000000	88.897435
1616.000000	88.359700
1614.000000	88.812383
1612.000000	88.520159
1610.000000	87.883104
1608.000000	87.560905
1606.000000	87.611449
1604.000000	87.809331
1602.000000	88.057107
1600.000000	88.304100
1598.000000	88.509430
1596.000000	88.643492
1594.000000	88.759649
1592.000000	88.836681
1590.000000	88.846195
1588.000000	88.812052
1586.000000	88.747047
1584.000000	88.671274
1582.000000	88.616441
1580.000000	88.431537
1578.000000	87.463800
1576.000000	86.781071
1574.000000	87.673991
1572.000000	87.961800
1570.000000	87.456992
1568.000000	87.542300
1566.000000	87.653269
1564.000000	87.335147
1562.000000	86.021715
1560.000000	83.852277
1558.000000	83.886374
1556.000000	85.440697
1554.000000	86.292602
1552.000000	86.939944
1550.000000	87.298143
1548.000000	87.485357
1546.000000	87.283723
1544.000000	86.774533
1542.000000	85.891381
1540.000000	85.400070
1538.000000	86.789690
1536.000000	88.168167
1534.000000	88.179891
1532.000000	88.527954
1530.000000	88.886220
1528.000000	88.663804
1526.000000	88.320272
1524.000000	87.893980
1522.000000	87.094421
1520.000000	87.249183
1518.000000	87.705351
1516.000000	87.735407
1514.000000	87.770032
1512.000000	87.563698
1510.000000	86.937924
1508.000000	85.341521
1506.000000	84.574415
1504.000000	85.305498
1502.000000	84.778256
1500.000000	82.252009
1498.000000	78.806045
1496.000000	76.291017
1494.000000	76.085770
1492.000000	77.173685
1490.000000	78.820882
1488.000000	80.812551
1486.000000	82.519004
1484.000000	83.641373
1482.000000	84.154394
1480.000000	84.386949
1478.000000	84.252497
1476.000000	83.775251
1474.000000	83.068772
1472.000000	82.894309
1470.000000	83.394151
1468.000000	83.344637
1466.000000	82.645976
1464.000000	82.254434
1462.000000	82.082377
1460.000000	80.976416
1458.000000	78.955674
1456.000000	77.971329
1454.000000	78.046843
1452.000000	77.731870
1450.000000	77.783977
1448.000000	78.568309
1446.000000	79.601561
1444.000000	80.143325
1442.000000	80.269642
1440.000000	80.107496
1438.000000	79.503712
1436.000000	79.421667
1434.000000	80.096422
1432.000000	80.246887
1430.000000	80.158757
1428.000000	80.223215
1426.000000	80.244596
1424.000000	80.104720
1422.000000	79.791904
1420.000000	79.072974
1418.000000	79.061622
1416.000000	79.453431
1414.000000	79.419817
1412.000000	79.070327
1410.000000	78.549154
1408.000000	77.785845
1406.000000	76.923208
1404.000000	76.453147
1402.000000	76.486700
1400.000000	76.637582
1398.000000	77.035097
1396.000000	77.379955
1394.000000	77.716847
1392.000000	78.162385
1390.000000	78.170035
1388.000000	77.761828
1386.000000	77.527113
1384.000000	77.525862
1382.000000	77.649831
1380.000000	77.739161
1378.000000	77.670953
1376.000000	77.472189
1374.000000	77.310951
1372.000000	77.325439
1370.000000	77.260661
1368.000000	77.106977
1366.000000	76.941943
1364.000000	76.652421
1362.000000	76.445335
1360.000000	76.409762
1358.000000	76.324442
1356.000000	76.133436
1354.000000	75.927333
1352.000000	75.726192
1350.000000	75.512318
1348.000000	75.297056
1346.000000	75.074848
1344.000000	74.823471
1342.000000	74.520179
1340.000000	74.224353
1338.000000	74.097083
1336.000000	74.063315
1334.000000	73.993484
1332.000000	73.848229
1330.000000	73.656088
1328.000000	73.434689
1326.000000	73.195535
1324.000000	72.931469
1322.000000	72.641491
1320.000000	72.322641
1318.000000	72.023950
1316.000000	71.737294
1314.000000	71.429024
1312.000000	71.121060
1310.000000	70.820126
1308.000000	70.495470
1306.000000	70.166828
1304.000000	69.828356
1302.000000	69.485334
1300.000000	69.139237
1298.000000	68.796168
1296.000000	68.443218
1294.000000	68.080009
1292.000000	67.697282
1290.000000	67.300928
1288.000000	66.897543
1286.000000	66.502162
1284.000000	66.093580
1282.000000	65.664046
1280.000000	65.207715
1278.000000	64.722654
1276.000000	64.184932
1274.000000	63.570664
1272.000000	62.838753
1270.000000	61.954649
1268.000000	60.853670
1266.000000	59.537262
1264.000000	58.164273
1262.000000	57.060626
1260.000000	56.506732
1258.000000	56.513689
1256.000000	56.805201
1254.000000	57.053585
1252.000000	57.053684
1250.000000	56.812882
1248.000000	56.418796
1246.000000	55.950221
1244.000000	55.443776
1242.000000	54.930595
1240.000000	54.421816
1238.000000	53.931454
1236.000000	53.455914
1234.000000	52.994213
1232.000000	52.539110
1230.000000	52.093183
1228.000000	51.646027
1226.000000	51.196820
1224.000000	50.738749
1222.000000	50.268723
1220.000000	49.776595
1218.000000	49.266727
1216.000000	48.743363
1214.000000	48.228396
1212.000000	47.736897
1210.000000	47.285719
1208.000000	46.867658
1206.000000	46.471599
1204.000000	46.076960
1202.000000	45.679402
1200.000000	45.284149
1198.000000	44.898471
1196.000000	44.507380
1194.000000	44.104244
1192.000000	43.685735
1190.000000	43.257337
1188.000000	42.812882
1186.000000	42.341152
1184.000000	41.758855
1182.000000	41.030788
1180.000000	40.463853
1178.000000	40.218248
1176.000000	39.987064
1174.000000	39.629887
1172.000000	39.204492
1170.000000	38.758599
1168.000000	38.293289
1166.000000	37.819224
1164.000000	37.348701
1162.000000	36.887541
1160.000000	36.429726
1158.000000	35.995768
1156.000000	35.576634
1154.000000	35.159831
1152.000000	34.733667
1150.000000	34.311746
1148.000000	33.882334
1146.000000	33.445782
1144.000000	33.017112
1142.000000	32.639986
1140.000000	32.327613
1138.000000	32.015983
1136.000000	31.657873
1134.000000	31.265071
1132.000000	30.848256
1130.000000	30.422641
1128.000000	30.000951
1126.000000	29.584410
1124.000000	29.157203
1122.000000	28.718632
1120.000000	28.267832
1118.000000	27.812315
1116.000000	27.348459
1114.000000	26.880771
1112.000000	26.411740
1110.000000	25.949827
1108.000000	25.495287
1106.000000	25.059628
1104.000000	24.640716
1102.000000	24.229801
1100.000000	23.817691
1098.000000	23.412876
1096.000000	23.016438
1094.000000	22.634246
1092.000000	22.265515
1090.000000	21.913497
1088.000000	21.572585
1086.000000	21.236633
1084.000000	20.889773
1082.000000	20.532085
1080.000000	20.191573
1078.000000	19.888394
1076.000000	19.613305
1074.000000	19.380945
1072.000000	19.165653
1070.000000	18.942610
1068.000000	18.711357
1066.000000	18.482127
1064.000000	18.250619
1062.000000	18.016608
1060.000000	17.768332
1058.000000	17.483021
1056.000000	17.095832
1054.000000	16.583858
1052.000000	16.076360
1050.000000	15.776375
1048.000000	15.742043
1046.000000	15.825294
1044.000000	15.827654
1042.000000	15.713346
1040.000000	15.528688
1038.000000	15.317256
1036.000000	15.091558
1034.000000	14.854354
1032.000000	14.604294
1030.000000	14.345938
1028.000000	14.080892
1026.000000	13.813250
1024.000000	13.539006
1022.000000	13.270121
1020.000000	13.015719
1018.000000	12.782346
1016.000000	12.568578
1014.000000	12.379807
1012.000000	12.209339
1010.000000	12.050333
1008.000000	11.888695
1006.000000	11.712188
1004.000000	11.514939
1002.000000	11.304528
1000.000000	11.076737
