PE IR       SUBTECH     SPECTRUM    ASCII       PEDS        4.00        
   -1
TE109A_027_100K_BG.ASC
20/04/21
13:21:47.00
20/04/21
13:21:47.00
Administrator
TE109A, Tuesday, April 21 2020, 027.
1000.000000
#HDR
-1
-1
#GR
cm-1
EGY
1.0
0.0
6000.000000
-2.000000
2501
8
104.196342
10.939554
#DATA
6000.000000	15.627689
5998.000000	15.659641
5996.000000	15.691302
5994.000000	15.720870
5992.000000	15.750683
5990.000000	15.781159
5988.000000	15.811638
5986.000000	15.842051
5984.000000	15.872660
5982.000000	15.904403
5980.000000	15.935056
5978.000000	15.966706
5976.000000	15.998749
5974.000000	16.032237
5972.000000	16.065459
5970.000000	16.096809
5968.000000	16.128002
5966.000000	16.159272
5964.000000	16.191063
5962.000000	16.223930
5960.000000	16.254951
5958.000000	16.285412
5956.000000	16.316155
5954.000000	16.347141
5952.000000	16.379883
5950.000000	16.413121
5948.000000	16.445494
5946.000000	16.477116
5944.000000	16.506148
5942.000000	16.536673
5940.000000	16.567938
5938.000000	16.598994
5936.000000	16.630285
5934.000000	16.661837
5932.000000	16.694905
5930.000000	16.727885
5928.000000	16.758499
5926.000000	16.791372
5924.000000	16.824245
5922.000000	16.857846
5920.000000	16.890723
5918.000000	16.923814
5916.000000	16.956616
5914.000000	16.989064
5912.000000	17.021181
5910.000000	17.056366
5908.000000	17.092005
5906.000000	17.128508
5904.000000	17.162380
5902.000000	17.195624
5900.000000	17.229990
5898.000000	17.264108
5896.000000	17.298779
5894.000000	17.331393
5892.000000	17.363899
5890.000000	17.397384
5888.000000	17.430849
5886.000000	17.464860
5884.000000	17.498219
5882.000000	17.531661
5880.000000	17.565008
5878.000000	17.598086
5876.000000	17.630293
5874.000000	17.663577
5872.000000	17.698457
5870.000000	17.733997
5868.000000	17.768430
5866.000000	17.802517
5864.000000	17.838149
5862.000000	17.874912
5860.000000	17.909756
5858.000000	17.944332
5856.000000	17.978357
5854.000000	18.015185
5852.000000	18.051121
5850.000000	18.086284
5848.000000	18.121831
5846.000000	18.158331
5844.000000	18.196175
5842.000000	18.233395
5840.000000	18.271842
5838.000000	18.312532
5836.000000	18.351655
5834.000000	18.389625
5832.000000	18.426437
5830.000000	18.464707
5828.000000	18.505174
5826.000000	18.545669
5824.000000	18.584834
5822.000000	18.622204
5820.000000	18.660363
5818.000000	18.700124
5816.000000	18.739581
5814.000000	18.777401
5812.000000	18.813948
5810.000000	18.851007
5808.000000	18.887382
5806.000000	18.923801
5804.000000	18.960610
5802.000000	18.998273
5800.000000	19.037140
5798.000000	19.076130
5796.000000	19.114516
5794.000000	19.152658
5792.000000	19.190781
5790.000000	19.229490
5788.000000	19.266987
5786.000000	19.305687
5784.000000	19.345412
5782.000000	19.386606
5780.000000	19.427900
5778.000000	19.467146
5776.000000	19.504228
5774.000000	19.540723
5772.000000	19.579127
5770.000000	19.619902
5768.000000	19.659182
5766.000000	19.696882
5764.000000	19.734242
5762.000000	19.773426
5760.000000	19.811620
5758.000000	19.849506
5756.000000	19.887871
5754.000000	19.928805
5752.000000	19.970605
5750.000000	20.010246
5748.000000	20.048041
5746.000000	20.086882
5744.000000	20.125109
5742.000000	20.163093
5740.000000	20.200094
5738.000000	20.238542
5736.000000	20.277221
5734.000000	20.314753
5732.000000	20.350438
5730.000000	20.386553
5728.000000	20.423294
5726.000000	20.462600
5724.000000	20.502885
5722.000000	20.544007
5720.000000	20.584005
5718.000000	20.625148
5716.000000	20.664830
5714.000000	20.705149
5712.000000	20.745726
5710.000000	20.787409
5708.000000	20.828916
5706.000000	20.869343
5704.000000	20.908392
5702.000000	20.948024
5700.000000	20.989151
5698.000000	21.032907
5696.000000	21.076176
5694.000000	21.117754
5692.000000	21.158950
5690.000000	21.201910
5688.000000	21.244832
5686.000000	21.287162
5684.000000	21.328959
5682.000000	21.371722
5680.000000	21.415493
5678.000000	21.457790
5676.000000	21.498656
5674.000000	21.540214
5672.000000	21.584573
5670.000000	21.629506
5668.000000	21.671330
5666.000000	21.711937
5664.000000	21.752199
5662.000000	21.794315
5660.000000	21.836918
5658.000000	21.879242
5656.000000	21.922017
5654.000000	21.965070
5652.000000	22.008058
5650.000000	22.052865
5648.000000	22.096368
5646.000000	22.140227
5644.000000	22.182222
5642.000000	22.223950
5640.000000	22.266248
5638.000000	22.309232
5636.000000	22.351483
5634.000000	22.393616
5632.000000	22.436357
5630.000000	22.479708
5628.000000	22.522271
5626.000000	22.564388
5624.000000	22.606236
5622.000000	22.648425
5620.000000	22.691535
5618.000000	22.734084
5616.000000	22.776362
5614.000000	22.817895
5612.000000	22.860073
5610.000000	22.904950
5608.000000	22.948561
5606.000000	22.991655
5604.000000	23.033744
5602.000000	23.075428
5600.000000	23.117205
5598.000000	23.158925
5596.000000	23.202188
5594.000000	23.246336
5592.000000	23.290436
5590.000000	23.334386
5588.000000	23.377330
5586.000000	23.421309
5584.000000	23.466179
5582.000000	23.512557
5580.000000	23.557453
5578.000000	23.600457
5576.000000	23.643905
5574.000000	23.689011
5572.000000	23.734615
5570.000000	23.780608
5568.000000	23.825074
5566.000000	23.869783
5564.000000	23.913139
5562.000000	23.958347
5560.000000	24.003343
5558.000000	24.048731
5556.000000	24.092356
5554.000000	24.136294
5552.000000	24.179952
5550.000000	24.224893
5548.000000	24.269917
5546.000000	24.315027
5544.000000	24.359272
5542.000000	24.404038
5540.000000	24.448103
5538.000000	24.492757
5536.000000	24.537383
5534.000000	24.582974
5532.000000	24.627476
5530.000000	24.672855
5528.000000	24.718238
5526.000000	24.763205
5524.000000	24.805728
5522.000000	24.849030
5520.000000	24.893565
5518.000000	24.938934
5516.000000	24.984173
5514.000000	25.029423
5512.000000	25.072575
5510.000000	25.114478
5508.000000	25.156345
5506.000000	25.202601
5504.000000	25.251339
5502.000000	25.298411
5500.000000	25.343345
5498.000000	25.386696
5496.000000	25.427766
5494.000000	25.467778
5492.000000	25.508057
5490.000000	25.555162
5488.000000	25.606701
5486.000000	25.661786
5484.000000	25.714452
5482.000000	25.762032
5480.000000	25.801573
5478.000000	25.836055
5476.000000	25.876668
5474.000000	25.926570
5472.000000	25.981533
5470.000000	26.031381
5468.000000	26.075856
5466.000000	26.118577
5464.000000	26.159649
5462.000000	26.204525
5460.000000	26.253938
5458.000000	26.307801
5456.000000	26.360318
5454.000000	26.407915
5452.000000	26.449029
5450.000000	26.484901
5448.000000	26.520802
5446.000000	26.564344
5444.000000	26.611518
5442.000000	26.663339
5440.000000	26.712693
5438.000000	26.757759
5436.000000	26.800652
5434.000000	26.843961
5432.000000	26.887107
5430.000000	26.932257
5428.000000	26.984010
5426.000000	27.043138
5424.000000	27.099379
5422.000000	27.150559
5420.000000	27.197945
5418.000000	27.234011
5416.000000	27.258891
5414.000000	27.287769
5412.000000	27.332865
5410.000000	27.394449
5408.000000	27.457089
5406.000000	27.515038
5404.000000	27.566841
5402.000000	27.615024
5400.000000	27.658115
5398.000000	27.692990
5396.000000	27.725579
5394.000000	27.770902
5392.000000	27.827880
5390.000000	27.885439
5388.000000	27.931016
5386.000000	27.976917
5384.000000	28.029535
5382.000000	28.082914
5380.000000	28.122761
5378.000000	28.158457
5376.000000	28.203731
5374.000000	28.263475
5372.000000	28.324818
5370.000000	28.379657
5368.000000	28.428709
5366.000000	28.474738
5364.000000	28.522043
5362.000000	28.571255
5360.000000	28.621156
5358.000000	28.663373
5356.000000	28.696533
5354.000000	28.733802
5352.000000	28.783364
5350.000000	28.836673
5348.000000	28.875835
5346.000000	28.910958
5344.000000	28.957981
5342.000000	29.009158
5340.000000	29.055108
5338.000000	29.102731
5336.000000	29.161124
5334.000000	29.222030
5332.000000	29.273128
5330.000000	29.317538
5328.000000	29.363700
5326.000000	29.416809
5324.000000	29.474329
5322.000000	29.528866
5320.000000	29.576423
5318.000000	29.622664
5316.000000	29.670990
5314.000000	29.721907
5312.000000	29.768795
5310.000000	29.808529
5308.000000	29.850948
5306.000000	29.903256
5304.000000	29.958471
5302.000000	30.009045
5300.000000	30.055956
5298.000000	30.106574
5296.000000	30.156838
5294.000000	30.200233
5292.000000	30.240422
5290.000000	30.286144
5288.000000	30.338184
5286.000000	30.393672
5284.000000	30.446507
5282.000000	30.500596
5280.000000	30.553286
5278.000000	30.605993
5276.000000	30.657345
5274.000000	30.704919
5272.000000	30.748307
5270.000000	30.791356
5268.000000	30.832250
5266.000000	30.871043
5264.000000	30.914054
5262.000000	30.971972
5260.000000	31.035484
5258.000000	31.087977
5256.000000	31.131600
5254.000000	31.179107
5252.000000	31.228087
5250.000000	31.271979
5248.000000	31.314675
5246.000000	31.366385
5244.000000	31.426375
5242.000000	31.486516
5240.000000	31.543529
5238.000000	31.596006
5236.000000	31.643730
5234.000000	31.688890
5232.000000	31.736305
5230.000000	31.783539
5228.000000	31.824984
5226.000000	31.868361
5224.000000	31.921819
5222.000000	31.980526
5220.000000	32.033203
5218.000000	32.084288
5216.000000	32.137943
5214.000000	32.191187
5212.000000	32.234468
5210.000000	32.267482
5208.000000	32.302624
5206.000000	32.354687
5204.000000	32.420916
5202.000000	32.485787
5200.000000	32.538445
5198.000000	32.585817
5196.000000	32.636968
5194.000000	32.693565
5192.000000	32.748058
5190.000000	32.798484
5188.000000	32.845239
5186.000000	32.893431
5184.000000	32.944709
5182.000000	32.999436
5180.000000	33.054462
5178.000000	33.108801
5176.000000	33.162635
5174.000000	33.216400
5172.000000	33.269821
5170.000000	33.322593
5168.000000	33.372992
5166.000000	33.423136
5164.000000	33.474455
5162.000000	33.529262
5160.000000	33.582226
5158.000000	33.632220
5156.000000	33.680786
5154.000000	33.732787
5152.000000	33.788457
5150.000000	33.845785
5148.000000	33.899537
5146.000000	33.949946
5144.000000	34.000305
5142.000000	34.053337
5140.000000	34.105678
5138.000000	34.157835
5136.000000	34.209587
5134.000000	34.260841
5132.000000	34.312253
5130.000000	34.366036
5128.000000	34.418844
5126.000000	34.469959
5124.000000	34.520226
5122.000000	34.571749
5120.000000	34.622429
5118.000000	34.673660
5116.000000	34.726511
5114.000000	34.781177
5112.000000	34.833863
5110.000000	34.886319
5108.000000	34.939441
5106.000000	34.994272
5104.000000	35.045366
5102.000000	35.095829
5100.000000	35.148211
5098.000000	35.205162
5096.000000	35.261985
5094.000000	35.317821
5092.000000	35.371802
5090.000000	35.426246
5088.000000	35.479351
5086.000000	35.531342
5084.000000	35.584546
5082.000000	35.640069
5080.000000	35.694272
5078.000000	35.748280
5076.000000	35.804601
5074.000000	35.862218
5072.000000	35.916200
5070.000000	35.968223
5068.000000	36.020671
5066.000000	36.075464
5064.000000	36.131447
5062.000000	36.187295
5060.000000	36.241438
5058.000000	36.294742
5056.000000	36.347881
5054.000000	36.402152
5052.000000	36.455860
5050.000000	36.510571
5048.000000	36.564794
5046.000000	36.619909
5044.000000	36.673295
5042.000000	36.726465
5040.000000	36.779607
5038.000000	36.833362
5036.000000	36.887137
5034.000000	36.940699
5032.000000	36.993429
5030.000000	37.046986
5028.000000	37.101958
5026.000000	37.158602
5024.000000	37.213274
5022.000000	37.266038
5020.000000	37.317454
5018.000000	37.370716
5016.000000	37.426878
5014.000000	37.482961
5012.000000	37.536400
5010.000000	37.590294
5008.000000	37.646815
5006.000000	37.703693
5004.000000	37.758598
5002.000000	37.814019
5000.000000	37.870349
4998.000000	37.926650
4996.000000	37.981962
4994.000000	38.037542
4992.000000	38.092705
4990.000000	38.148737
4988.000000	38.204875
4986.000000	38.261858
4984.000000	38.318876
4982.000000	38.375971
4980.000000	38.432279
4978.000000	38.489432
4976.000000	38.545418
4974.000000	38.601307
4972.000000	38.656060
4970.000000	38.712584
4968.000000	38.768748
4966.000000	38.825420
4964.000000	38.880341
4962.000000	38.934729
4960.000000	38.989270
4958.000000	39.044906
4956.000000	39.101029
4954.000000	39.158191
4952.000000	39.213240
4950.000000	39.266889
4948.000000	39.320831
4946.000000	39.377508
4944.000000	39.433491
4942.000000	39.488164
4940.000000	39.542902
4938.000000	39.599310
4936.000000	39.654894
4934.000000	39.709751
4932.000000	39.763907
4930.000000	39.819233
4928.000000	39.874389
4926.000000	39.930179
4924.000000	39.985356
4922.000000	40.041305
4920.000000	40.095476
4918.000000	40.149879
4916.000000	40.205519
4914.000000	40.263225
4912.000000	40.319253
4910.000000	40.375611
4908.000000	40.433225
4906.000000	40.490668
4904.000000	40.545674
4902.000000	40.601907
4900.000000	40.659210
4898.000000	40.716789
4896.000000	40.772879
4894.000000	40.830515
4892.000000	40.890031
4890.000000	40.949292
4888.000000	41.006781
4886.000000	41.064491
4884.000000	41.122158
4882.000000	41.179667
4880.000000	41.236508
4878.000000	41.295296
4876.000000	41.352472
4874.000000	41.409516
4872.000000	41.466776
4870.000000	41.524650
4868.000000	41.581007
4866.000000	41.636660
4864.000000	41.692884
4862.000000	41.750073
4860.000000	41.806960
4858.000000	41.864087
4856.000000	41.921123
4854.000000	41.978566
4852.000000	42.033481
4850.000000	42.087975
4848.000000	42.144392
4846.000000	42.202050
4844.000000	42.258315
4842.000000	42.314277
4840.000000	42.370481
4838.000000	42.427285
4836.000000	42.483790
4834.000000	42.540663
4832.000000	42.596628
4830.000000	42.653197
4828.000000	42.708982
4826.000000	42.764654
4824.000000	42.820152
4822.000000	42.877910
4820.000000	42.935711
4818.000000	42.993039
4816.000000	43.048428
4814.000000	43.104666
4812.000000	43.161738
4810.000000	43.221354
4808.000000	43.281917
4806.000000	43.342755
4804.000000	43.400469
4802.000000	43.457765
4800.000000	43.515079
4798.000000	43.573260
4796.000000	43.630083
4794.000000	43.689185
4792.000000	43.749599
4790.000000	43.810334
4788.000000	43.868256
4786.000000	43.925907
4784.000000	43.984718
4782.000000	44.045354
4780.000000	44.104993
4778.000000	44.163923
4776.000000	44.220755
4774.000000	44.278004
4772.000000	44.336095
4770.000000	44.394820
4768.000000	44.452905
4766.000000	44.512247
4764.000000	44.571379
4762.000000	44.629611
4760.000000	44.687768
4758.000000	44.746713
4756.000000	44.803969
4754.000000	44.861903
4752.000000	44.919780
4750.000000	44.976479
4748.000000	45.031135
4746.000000	45.086128
4744.000000	45.140621
4742.000000	45.196580
4740.000000	45.254408
4738.000000	45.313679
4736.000000	45.372376
4734.000000	45.430507
4732.000000	45.486397
4730.000000	45.542059
4728.000000	45.598806
4726.000000	45.656064
4724.000000	45.712517
4722.000000	45.770286
4720.000000	45.830500
4718.000000	45.891985
4716.000000	45.952557
4714.000000	46.013531
4712.000000	46.075247
4710.000000	46.136788
4708.000000	46.196142
4706.000000	46.255662
4704.000000	46.317234
4702.000000	46.380157
4700.000000	46.441928
4698.000000	46.503863
4696.000000	46.565732
4694.000000	46.626576
4692.000000	46.685270
4690.000000	46.744068
4688.000000	46.803031
4686.000000	46.862989
4684.000000	46.923816
4682.000000	46.985604
4680.000000	47.045842
4678.000000	47.106024
4676.000000	47.166715
4674.000000	47.227522
4672.000000	47.287222
4670.000000	47.348401
4668.000000	47.410403
4666.000000	47.471717
4664.000000	47.531557
4662.000000	47.591749
4660.000000	47.650353
4658.000000	47.709603
4656.000000	47.769550
4654.000000	47.828858
4652.000000	47.886494
4650.000000	47.946087
4648.000000	48.005567
4646.000000	48.065616
4644.000000	48.126882
4642.000000	48.188724
4640.000000	48.248342
4638.000000	48.308143
4636.000000	48.367804
4634.000000	48.427823
4632.000000	48.487220
4630.000000	48.546852
4628.000000	48.605311
4626.000000	48.666006
4624.000000	48.726249
4622.000000	48.786182
4620.000000	48.846884
4618.000000	48.909472
4616.000000	48.970830
4614.000000	49.033451
4612.000000	49.096818
4610.000000	49.160327
4608.000000	49.223721
4606.000000	49.288950
4604.000000	49.353387
4602.000000	49.416366
4600.000000	49.478476
4598.000000	49.542535
4596.000000	49.607055
4594.000000	49.672530
4592.000000	49.737655
4590.000000	49.801285
4588.000000	49.863183
4586.000000	49.925953
4584.000000	49.989423
4582.000000	50.053272
4580.000000	50.116906
4578.000000	50.179191
4576.000000	50.239457
4574.000000	50.301816
4572.000000	50.365673
4570.000000	50.429166
4568.000000	50.489756
4566.000000	50.551098
4564.000000	50.614849
4562.000000	50.680143
4560.000000	50.742739
4558.000000	50.804468
4556.000000	50.865793
4554.000000	50.926591
4552.000000	50.987424
4550.000000	51.049555
4548.000000	51.111211
4546.000000	51.173454
4544.000000	51.236066
4542.000000	51.299570
4540.000000	51.361230
4538.000000	51.420275
4536.000000	51.477877
4534.000000	51.539309
4532.000000	51.603276
4530.000000	51.666701
4528.000000	51.729217
4526.000000	51.792314
4524.000000	51.854903
4522.000000	51.918406
4520.000000	51.982057
4518.000000	52.045560
4516.000000	52.107754
4514.000000	52.169714
4512.000000	52.233192
4510.000000	52.299924
4508.000000	52.365925
4506.000000	52.430583
4504.000000	52.493983
4502.000000	52.557300
4500.000000	52.620508
4498.000000	52.686555
4496.000000	52.753902
4494.000000	52.820106
4492.000000	52.883963
4490.000000	52.947616
4488.000000	53.010683
4486.000000	53.074545
4484.000000	53.138505
4482.000000	53.203402
4480.000000	53.268657
4478.000000	53.334005
4476.000000	53.396008
4474.000000	53.456021
4472.000000	53.516591
4470.000000	53.579680
4468.000000	53.641114
4466.000000	53.702578
4464.000000	53.764712
4462.000000	53.826310
4460.000000	53.887149
4458.000000	53.949509
4456.000000	54.010972
4454.000000	54.072965
4452.000000	54.135535
4450.000000	54.197660
4448.000000	54.258794
4446.000000	54.320491
4444.000000	54.381638
4442.000000	54.443094
4440.000000	54.502994
4438.000000	54.563267
4436.000000	54.624779
4434.000000	54.687969
4432.000000	54.750275
4430.000000	54.813261
4428.000000	54.876433
4426.000000	54.940398
4424.000000	55.003354
4422.000000	55.065285
4420.000000	55.125248
4418.000000	55.187970
4416.000000	55.253244
4414.000000	55.318641
4412.000000	55.381999
4410.000000	55.446276
4408.000000	55.510127
4406.000000	55.574574
4404.000000	55.639435
4402.000000	55.703829
4400.000000	55.765629
4398.000000	55.829004
4396.000000	55.892279
4394.000000	55.955238
4392.000000	56.018146
4390.000000	56.081062
4388.000000	56.142390
4386.000000	56.203785
4384.000000	56.264586
4382.000000	56.325010
4380.000000	56.384550
4378.000000	56.445507
4376.000000	56.506420
4374.000000	56.565222
4372.000000	56.623243
4370.000000	56.683437
4368.000000	56.744467
4366.000000	56.805011
4364.000000	56.864667
4362.000000	56.924223
4360.000000	56.983001
4358.000000	57.044060
4356.000000	57.106424
4354.000000	57.168596
4352.000000	57.231541
4350.000000	57.295569
4348.000000	57.357854
4346.000000	57.420512
4344.000000	57.481407
4342.000000	57.541817
4340.000000	57.603537
4338.000000	57.666583
4336.000000	57.730503
4334.000000	57.795858
4332.000000	57.859283
4330.000000	57.922928
4328.000000	57.988636
4326.000000	58.055354
4324.000000	58.120029
4322.000000	58.184360
4320.000000	58.249551
4318.000000	58.316991
4316.000000	58.385267
4314.000000	58.452144
4312.000000	58.515945
4310.000000	58.580753
4308.000000	58.647203
4306.000000	58.714646
4304.000000	58.781302
4302.000000	58.848123
4300.000000	58.913112
4298.000000	58.977846
4296.000000	59.043113
4294.000000	59.108233
4292.000000	59.171374
4290.000000	59.234414
4288.000000	59.296388
4286.000000	59.358644
4284.000000	59.420709
4282.000000	59.481544
4280.000000	59.539522
4278.000000	59.599121
4276.000000	59.660851
4274.000000	59.722010
4272.000000	59.780353
4270.000000	59.837905
4268.000000	59.893770
4266.000000	59.951142
4264.000000	60.012771
4262.000000	60.077217
4260.000000	60.139389
4258.000000	60.201147
4256.000000	60.262969
4254.000000	60.325751
4252.000000	60.389439
4250.000000	60.452174
4248.000000	60.512921
4246.000000	60.576637
4244.000000	60.641839
4242.000000	60.705605
4240.000000	60.767859
4238.000000	60.830994
4236.000000	60.894227
4234.000000	60.959169
4232.000000	61.025927
4230.000000	61.092559
4228.000000	61.155423
4226.000000	61.217132
4224.000000	61.280219
4222.000000	61.344331
4220.000000	61.407596
4218.000000	61.471502
4216.000000	61.535610
4214.000000	61.600803
4212.000000	61.667318
4210.000000	61.734371
4208.000000	61.799075
4206.000000	61.863395
4204.000000	61.930335
4202.000000	62.000052
4200.000000	62.067516
4198.000000	62.133049
4196.000000	62.200273
4194.000000	62.269647
4192.000000	62.338488
4190.000000	62.407563
4188.000000	62.474899
4186.000000	62.541291
4184.000000	62.607054
4182.000000	62.673458
4180.000000	62.738812
4178.000000	62.802589
4176.000000	62.865983
4174.000000	62.931128
4172.000000	62.996247
4170.000000	63.060282
4168.000000	63.122645
4166.000000	63.185909
4164.000000	63.250340
4162.000000	63.316687
4160.000000	63.380607
4158.000000	63.441196
4156.000000	63.502570
4154.000000	63.567171
4152.000000	63.631929
4150.000000	63.696782
4148.000000	63.761281
4146.000000	63.825975
4144.000000	63.891157
4142.000000	63.957368
4140.000000	64.021433
4138.000000	64.085821
4136.000000	64.152644
4134.000000	64.219885
4132.000000	64.284737
4130.000000	64.350125
4128.000000	64.416044
4126.000000	64.481937
4124.000000	64.546187
4122.000000	64.611292
4120.000000	64.678506
4118.000000	64.744761
4116.000000	64.808988
4114.000000	64.875890
4112.000000	64.943187
4110.000000	65.007065
4108.000000	65.067681
4106.000000	65.130645
4104.000000	65.195929
4102.000000	65.261370
4100.000000	65.326805
4098.000000	65.391877
4096.000000	65.454527
4094.000000	65.518451
4092.000000	65.584707
4090.000000	65.650922
4088.000000	65.717415
4086.000000	65.787750
4084.000000	65.857386
4082.000000	65.924280
4080.000000	65.990648
4078.000000	66.058477
4076.000000	66.125122
4074.000000	66.190568
4072.000000	66.255752
4070.000000	66.322194
4068.000000	66.388834
4066.000000	66.454408
4064.000000	66.516381
4062.000000	66.578601
4060.000000	66.641998
4058.000000	66.707297
4056.000000	66.773725
4054.000000	66.839266
4052.000000	66.902890
4050.000000	66.967153
4048.000000	67.029601
4046.000000	67.089944
4044.000000	67.152638
4042.000000	67.221520
4040.000000	67.290054
4038.000000	67.357104
4036.000000	67.424806
4034.000000	67.492020
4032.000000	67.557530
4030.000000	67.623300
4028.000000	67.687445
4026.000000	67.753061
4024.000000	67.822337
4022.000000	67.892017
4020.000000	67.958892
4018.000000	68.028151
4016.000000	68.098978
4014.000000	68.167303
4012.000000	68.232355
4010.000000	68.299123
4008.000000	68.369140
4006.000000	68.438667
4004.000000	68.505799
4002.000000	68.575116
4000.000000	68.644084
3998.000000	68.708520
3996.000000	68.770047
3994.000000	68.833331
3992.000000	68.896761
3990.000000	68.962847
3988.000000	69.030828
3986.000000	69.096169
3984.000000	69.157666
3982.000000	69.219708
3980.000000	69.282837
3978.000000	69.342685
3976.000000	69.399607
3974.000000	69.460405
3972.000000	69.522970
3970.000000	69.587276
3968.000000	69.654740
3966.000000	69.718374
3964.000000	69.770289
3962.000000	69.822312
3960.000000	69.885373
3958.000000	69.952958
3956.000000	70.016274
3954.000000	70.070688
3952.000000	70.107585
3950.000000	70.142224
3948.000000	70.202020
3946.000000	70.266848
3944.000000	70.314125
3942.000000	70.386121
3940.000000	70.487978
3938.000000	70.573717
3936.000000	70.612150
3934.000000	70.613810
3932.000000	70.649455
3930.000000	70.750783
3928.000000	70.841805
3926.000000	70.889262
3924.000000	70.945167
3922.000000	71.002673
3920.000000	71.016553
3918.000000	71.046872
3916.000000	71.172686
3914.000000	71.337765
3912.000000	71.452200
3910.000000	71.504877
3908.000000	71.453917
3906.000000	71.278911
3904.000000	71.132374
3902.000000	71.153104
3900.000000	71.335946
3898.000000	71.618502
3896.000000	71.828911
3894.000000	71.817139
3892.000000	71.752705
3890.000000	71.821949
3888.000000	71.826912
3886.000000	71.782766
3884.000000	71.906733
3882.000000	72.047944
3880.000000	72.168516
3878.000000	72.322829
3876.000000	72.367204
3874.000000	72.277111
3872.000000	72.088076
3870.000000	72.027048
3868.000000	72.212915
3866.000000	72.366192
3864.000000	72.476032
3862.000000	72.680575
3860.000000	72.852096
3858.000000	72.643942
3856.000000	71.870738
3854.000000	71.332663
3852.000000	71.827418
3850.000000	72.755293
3848.000000	73.272808
3846.000000	73.353713
3844.000000	73.277742
3842.000000	73.118733
3840.000000	72.807550
3838.000000	72.661230
3836.000000	72.956520
3834.000000	73.346132
3832.000000	73.586976
3830.000000	73.768069
3828.000000	73.883819
3826.000000	73.909343
3824.000000	73.746151
3822.000000	73.534551
3820.000000	73.548395
3818.000000	73.543446
3816.000000	73.607960
3814.000000	74.049373
3812.000000	74.440986
3810.000000	74.396793
3808.000000	74.172207
3806.000000	74.157482
3804.000000	74.096654
3802.000000	73.950385
3800.000000	74.192832
3798.000000	74.592639
3796.000000	74.838786
3794.000000	75.038442
3792.000000	75.182183
3790.000000	75.253545
3788.000000	75.285579
3786.000000	75.308061
3784.000000	75.344002
3782.000000	75.344908
3780.000000	75.343076
3778.000000	75.456682
3776.000000	75.613380
3774.000000	75.657351
3772.000000	75.557630
3770.000000	75.492012
3768.000000	75.571494
3766.000000	75.705414
3764.000000	75.829967
3762.000000	75.850432
3760.000000	75.807132
3758.000000	75.853432
3756.000000	75.791353
3754.000000	75.336353
3752.000000	74.834532
3750.000000	74.855144
3748.000000	75.072357
3746.000000	74.914988
3744.000000	75.052778
3742.000000	75.793931
3740.000000	76.197715
3738.000000	76.015091
3736.000000	75.831482
3734.000000	75.926535
3732.000000	76.230783
3730.000000	76.593664
3728.000000	76.765737
3726.000000	76.801713
3724.000000	76.870624
3722.000000	76.979576
3720.000000	77.119055
3718.000000	77.241863
3716.000000	77.205216
3714.000000	76.925303
3712.000000	76.737190
3710.000000	76.944808
3708.000000	77.327208
3706.000000	77.564029
3704.000000	77.577528
3702.000000	77.564826
3700.000000	77.692837
3698.000000	77.843496
3696.000000	77.898752
3694.000000	77.804300
3692.000000	77.481347
3690.000000	77.110834
3688.000000	77.214168
3686.000000	77.761363
3684.000000	78.140322
3682.000000	78.190180
3680.000000	78.009892
3678.000000	77.552335
3676.000000	77.216043
3674.000000	77.354210
3672.000000	77.466142
3670.000000	77.579176
3668.000000	78.033613
3666.000000	78.461251
3664.000000	78.627907
3662.000000	78.662524
3660.000000	78.590555
3658.000000	78.393663
3656.000000	78.322762
3654.000000	78.345239
3652.000000	78.045886
3650.000000	77.691988
3648.000000	77.859658
3646.000000	78.375573
3644.000000	78.744205
3642.000000	78.873111
3640.000000	78.909891
3638.000000	78.920212
3636.000000	78.893877
3634.000000	78.801159
3632.000000	78.479859
3630.000000	78.066573
3628.000000	78.171639
3626.000000	78.673194
3624.000000	78.924727
3622.000000	78.797618
3620.000000	78.603647
3618.000000	78.641681
3616.000000	78.763441
3614.000000	78.755613
3612.000000	78.681596
3610.000000	78.630910
3608.000000	78.725760
3606.000000	78.938340
3604.000000	79.058972
3602.000000	79.052861
3600.000000	79.026402
3598.000000	79.004120
3596.000000	78.974019
3594.000000	78.985391
3592.000000	78.975144
3590.000000	78.823702
3588.000000	78.701297
3586.000000	78.811639
3584.000000	79.000678
3582.000000	79.086400
3580.000000	79.096739
3578.000000	79.094527
3576.000000	79.093326
3574.000000	79.094069
3572.000000	79.050023
3570.000000	78.887539
3568.000000	78.722451
3566.000000	78.759657
3564.000000	78.914981
3562.000000	79.006026
3560.000000	79.036723
3558.000000	79.055413
3556.000000	79.047099
3554.000000	79.008090
3552.000000	78.986851
3550.000000	78.976758
3548.000000	78.925946
3546.000000	78.886441
3544.000000	78.917056
3542.000000	78.970536
3540.000000	78.985802
3538.000000	78.961951
3536.000000	78.940145
3534.000000	78.933040
3532.000000	78.903586
3530.000000	78.846373
3528.000000	78.793815
3526.000000	78.754089
3524.000000	78.722204
3522.000000	78.711831
3520.000000	78.707604
3518.000000	78.689434
3516.000000	78.661436
3514.000000	78.621297
3512.000000	78.564922
3510.000000	78.512107
3508.000000	78.478178
3506.000000	78.425468
3504.000000	78.350117
3502.000000	78.304585
3500.000000	78.281816
3498.000000	78.240326
3496.000000	78.189084
3494.000000	78.146105
3492.000000	78.100438
3490.000000	78.044984
3488.000000	77.993833
3486.000000	77.956195
3484.000000	77.916027
3482.000000	77.880974
3480.000000	77.870870
3478.000000	77.874321
3476.000000	77.876567
3474.000000	77.882003
3472.000000	77.892938
3470.000000	77.902159
3468.000000	77.915664
3466.000000	77.946276
3464.000000	77.985247
3462.000000	78.022799
3460.000000	78.063770
3458.000000	78.105899
3456.000000	78.142625
3454.000000	78.173989
3452.000000	78.197546
3450.000000	78.202720
3448.000000	78.201748
3446.000000	78.230467
3444.000000	78.283464
3442.000000	78.344008
3440.000000	78.417866
3438.000000	78.503279
3436.000000	78.603780
3434.000000	78.725919
3432.000000	78.863797
3430.000000	79.005138
3428.000000	79.147102
3426.000000	79.283414
3424.000000	79.403014
3422.000000	79.508581
3420.000000	79.618251
3418.000000	79.731501
3416.000000	79.830797
3414.000000	79.911566
3412.000000	79.983093
3410.000000	80.050056
3408.000000	80.111926
3406.000000	80.169022
3404.000000	80.220242
3402.000000	80.269230
3400.000000	80.327537
3398.000000	80.403836
3396.000000	80.485481
3394.000000	80.553380
3392.000000	80.620665
3390.000000	80.702701
3388.000000	80.780665
3386.000000	80.842917
3384.000000	80.901899
3382.000000	80.961415
3380.000000	81.017691
3378.000000	81.071273
3376.000000	81.122498
3374.000000	81.172204
3372.000000	81.213385
3370.000000	81.244570
3368.000000	81.284375
3366.000000	81.337348
3364.000000	81.392599
3362.000000	81.441805
3360.000000	81.485589
3358.000000	81.527803
3356.000000	81.572653
3354.000000	81.620460
3352.000000	81.663965
3350.000000	81.705899
3348.000000	81.753029
3346.000000	81.799719
3344.000000	81.841177
3342.000000	81.881952
3340.000000	81.920354
3338.000000	81.956969
3336.000000	82.002295
3334.000000	82.052041
3332.000000	82.097308
3330.000000	82.136807
3328.000000	82.171757
3326.000000	82.206286
3324.000000	82.246557
3322.000000	82.288697
3320.000000	82.328813
3318.000000	82.366735
3316.000000	82.404342
3314.000000	82.440576
3312.000000	82.474282
3310.000000	82.503584
3308.000000	82.530444
3306.000000	82.561330
3304.000000	82.605924
3302.000000	82.657501
3300.000000	82.700423
3298.000000	82.736063
3296.000000	82.771696
3294.000000	82.804502
3292.000000	82.837919
3290.000000	82.882251
3288.000000	82.931041
3286.000000	82.974341
3284.000000	83.013232
3282.000000	83.051521
3280.000000	83.091222
3278.000000	83.129137
3276.000000	83.165075
3274.000000	83.201789
3272.000000	83.241806
3270.000000	83.288745
3268.000000	83.341242
3266.000000	83.389532
3264.000000	83.434265
3262.000000	83.478122
3260.000000	83.523126
3258.000000	83.567978
3256.000000	83.610698
3254.000000	83.657617
3252.000000	83.710649
3250.000000	83.761158
3248.000000	83.806703
3246.000000	83.851435
3244.000000	83.905281
3242.000000	83.962368
3240.000000	84.015395
3238.000000	84.066440
3236.000000	84.113716
3234.000000	84.158683
3232.000000	84.210448
3230.000000	84.266574
3228.000000	84.320830
3226.000000	84.376020
3224.000000	84.429484
3222.000000	84.477271
3220.000000	84.524746
3218.000000	84.574616
3216.000000	84.623602
3214.000000	84.674151
3212.000000	84.728275
3210.000000	84.782570
3208.000000	84.841654
3206.000000	84.906024
3204.000000	84.975808
3202.000000	85.046723
3200.000000	85.115085
3198.000000	85.185724
3196.000000	85.264769
3194.000000	85.344559
3192.000000	85.417674
3190.000000	85.488515
3188.000000	85.561293
3186.000000	85.631291
3184.000000	85.702686
3182.000000	85.774847
3180.000000	85.843789
3178.000000	85.914626
3176.000000	85.991972
3174.000000	86.070519
3172.000000	86.144649
3170.000000	86.216382
3168.000000	86.291023
3166.000000	86.367934
3164.000000	86.444729
3162.000000	86.522603
3160.000000	86.603431
3158.000000	86.683659
3156.000000	86.760635
3154.000000	86.832705
3152.000000	86.907454
3150.000000	86.990972
3148.000000	87.075664
3146.000000	87.155716
3144.000000	87.232315
3142.000000	87.305163
3140.000000	87.375580
3138.000000	87.448635
3136.000000	87.522232
3134.000000	87.589687
3132.000000	87.657956
3130.000000	87.727358
3128.000000	87.793174
3126.000000	87.855929
3124.000000	87.915932
3122.000000	87.970436
3120.000000	88.021093
3118.000000	88.072537
3116.000000	88.130476
3114.000000	88.194126
3112.000000	88.254898
3110.000000	88.307768
3108.000000	88.363255
3106.000000	88.424643
3104.000000	88.485834
3102.000000	88.544585
3100.000000	88.606990
3098.000000	88.674022
3096.000000	88.743000
3094.000000	88.811713
3092.000000	88.876852
3090.000000	88.938037
3088.000000	88.997959
3086.000000	89.051818
3084.000000	89.100758
3082.000000	89.145466
3080.000000	89.185824
3078.000000	89.227049
3076.000000	89.272170
3074.000000	89.306209
3072.000000	89.326168
3070.000000	89.337507
3068.000000	89.346403
3066.000000	89.364774
3064.000000	89.402476
3062.000000	89.455666
3060.000000	89.514608
3058.000000	89.572172
3056.000000	89.634781
3054.000000	89.702157
3052.000000	89.761441
3050.000000	89.811981
3048.000000	89.863470
3046.000000	89.908289
3044.000000	89.941132
3042.000000	89.968270
3040.000000	89.997103
3038.000000	90.019565
3036.000000	90.030191
3034.000000	90.031038
3032.000000	90.023320
3030.000000	89.996326
3028.000000	89.935515
3026.000000	89.833494
3024.000000	89.710400
3022.000000	89.598893
3020.000000	89.536300
3018.000000	89.564253
3016.000000	89.704398
3014.000000	89.937814
3012.000000	90.222103
3010.000000	90.499243
3008.000000	90.724977
3006.000000	90.885842
3004.000000	90.999417
3002.000000	91.081010
3000.000000	91.139039
2998.000000	91.181630
2996.000000	91.215362
2994.000000	91.238434
2992.000000	91.253722
2990.000000	91.259038
2988.000000	91.245920
2986.000000	91.211012
2984.000000	91.156112
2982.000000	91.074320
2980.000000	90.959552
2978.000000	90.802183
2976.000000	90.583315
2974.000000	90.284195
2972.000000	89.898879
2970.000000	89.429754
2968.000000	88.918385
2966.000000	88.444167
2964.000000	88.096448
2962.000000	87.930638
2960.000000	87.946691
2958.000000	88.088158
2956.000000	88.279283
2954.000000	88.462355
2952.000000	88.606718
2950.000000	88.680455
2948.000000	88.648649
2946.000000	88.489401
2944.000000	88.204240
2942.000000	87.804143
2940.000000	87.322961
2938.000000	86.818370
2936.000000	86.354635
2934.000000	85.945759
2932.000000	85.556812
2930.000000	85.172470
2928.000000	84.848854
2926.000000	84.689719
2924.000000	84.798633
2922.000000	85.212364
2920.000000	85.879238
2918.000000	86.688038
2916.000000	87.530243
2914.000000	88.320725
2912.000000	89.002337
2910.000000	89.548531
2908.000000	89.974634
2906.000000	90.320386
2904.000000	90.620026
2902.000000	90.892748
2900.000000	91.148770
2898.000000	91.387073
2896.000000	91.610331
2894.000000	91.824448
2892.000000	92.029766
2890.000000	92.215097
2888.000000	92.377899
2886.000000	92.508022
2884.000000	92.597171
2882.000000	92.643532
2880.000000	92.645753
2878.000000	92.595131
2876.000000	92.484412
2874.000000	92.310334
2872.000000	92.063455
2870.000000	91.712923
2868.000000	91.237769
2866.000000	90.674503
2864.000000	90.143313
2862.000000	89.797338
2860.000000	89.726871
2858.000000	89.894862
2856.000000	90.194343
2854.000000	90.548260
2852.000000	90.955865
2850.000000	91.456724
2848.000000	92.054894
2846.000000	92.668191
2844.000000	93.205645
2842.000000	93.636282
2840.000000	93.973362
2838.000000	94.241431
2836.000000	94.462591
2834.000000	94.644079
2832.000000	94.798933
2830.000000	94.935691
2828.000000	95.059683
2826.000000	95.169487
2824.000000	95.269878
2822.000000	95.364074
2820.000000	95.452495
2818.000000	95.531675
2816.000000	95.603713
2814.000000	95.668545
2812.000000	95.728434
2810.000000	95.782485
2808.000000	95.835058
2806.000000	95.884542
2804.000000	95.931778
2802.000000	95.978413
2800.000000	96.023117
2798.000000	96.065410
2796.000000	96.108219
2794.000000	96.152108
2792.000000	96.201046
2790.000000	96.257062
2788.000000	96.326343
2786.000000	96.408794
2784.000000	96.495119
2782.000000	96.575307
2780.000000	96.653319
2778.000000	96.724931
2776.000000	96.787474
2774.000000	96.844845
2772.000000	96.902816
2770.000000	96.956857
2768.000000	97.008818
2766.000000	97.056197
2764.000000	97.103928
2762.000000	97.152914
2760.000000	97.201816
2758.000000	97.246406
2756.000000	97.290421
2754.000000	97.333933
2752.000000	97.376611
2750.000000	97.416677
2748.000000	97.454354
2746.000000	97.492612
2744.000000	97.530474
2742.000000	97.565940
2740.000000	97.601653
2738.000000	97.635995
2736.000000	97.672100
2734.000000	97.706696
2732.000000	97.741937
2730.000000	97.778386
2728.000000	97.813609
2726.000000	97.845384
2724.000000	97.878073
2722.000000	97.911926
2720.000000	97.946590
2718.000000	97.977469
2716.000000	98.006961
2714.000000	98.036307
2712.000000	98.064332
2710.000000	98.088847
2708.000000	98.114259
2706.000000	98.140219
2704.000000	98.171331
2702.000000	98.209729
2700.000000	98.256161
2698.000000	98.303926
2696.000000	98.352038
2694.000000	98.397356
2692.000000	98.443240
2690.000000	98.486396
2688.000000	98.527730
2686.000000	98.568642
2684.000000	98.610166
2682.000000	98.649248
2680.000000	98.686838
2678.000000	98.722545
2676.000000	98.757530
2674.000000	98.789958
2672.000000	98.821513
2670.000000	98.850094
2668.000000	98.879000
2666.000000	98.909464
2664.000000	98.941926
2662.000000	98.971915
2660.000000	99.000491
2658.000000	99.029302
2656.000000	99.064613
2654.000000	99.103072
2652.000000	99.143923
2650.000000	99.184747
2648.000000	99.226265
2646.000000	99.265794
2644.000000	99.304501
2642.000000	99.341793
2640.000000	99.379172
2638.000000	99.414466
2636.000000	99.449039
2634.000000	99.483296
2632.000000	99.517406
2630.000000	99.548511
2628.000000	99.579358
2626.000000	99.607085
2624.000000	99.635704
2622.000000	99.663832
2620.000000	99.692349
2618.000000	99.719943
2616.000000	99.747803
2614.000000	99.773886
2612.000000	99.799464
2610.000000	99.822526
2608.000000	99.842912
2606.000000	99.861123
2604.000000	99.880272
2602.000000	99.895007
2600.000000	99.906001
2598.000000	99.914414
2596.000000	99.926929
2594.000000	99.942767
2592.000000	99.965677
2590.000000	99.997876
2588.000000	100.041848
2586.000000	100.092857
2584.000000	100.152296
2582.000000	100.217446
2580.000000	100.281019
2578.000000	100.339131
2576.000000	100.394241
2574.000000	100.440574
2572.000000	100.485100
2570.000000	100.526196
2568.000000	100.563536
2566.000000	100.598155
2564.000000	100.630990
2562.000000	100.661765
2560.000000	100.693252
2558.000000	100.720955
2556.000000	100.749795
2554.000000	100.777072
2552.000000	100.803856
2550.000000	100.831269
2548.000000	100.859354
2546.000000	100.884757
2544.000000	100.912348
2542.000000	100.939858
2540.000000	100.967814
2538.000000	100.995404
2536.000000	101.024144
2534.000000	101.051905
2532.000000	101.078847
2530.000000	101.104369
2528.000000	101.130894
2526.000000	101.154482
2524.000000	101.180522
2522.000000	101.205945
2520.000000	101.230059
2518.000000	101.253692
2516.000000	101.280221
2514.000000	101.305829
2512.000000	101.329605
2510.000000	101.350624
2508.000000	101.371076
2506.000000	101.391363
2504.000000	101.415951
2502.000000	101.436213
2500.000000	101.460908
2498.000000	101.486811
2496.000000	101.513847
2494.000000	101.542946
2492.000000	101.570956
2490.000000	101.596792
2488.000000	101.623636
2486.000000	101.648634
2484.000000	101.674918
2482.000000	101.701064
2480.000000	101.729066
2478.000000	101.753968
2476.000000	101.777534
2474.000000	101.798948
2472.000000	101.821569
2470.000000	101.841496
2468.000000	101.860115
2466.000000	101.878111
2464.000000	101.896943
2462.000000	101.914095
2460.000000	101.932088
2458.000000	101.948839
2456.000000	101.965698
2454.000000	101.981630
2452.000000	101.999990
2450.000000	102.017237
2448.000000	102.035836
2446.000000	102.054769
2444.000000	102.071102
2442.000000	102.085221
2440.000000	102.103193
2438.000000	102.119394
2436.000000	102.135045
2434.000000	102.149653
2432.000000	102.165805
2430.000000	102.178266
2428.000000	102.188078
2426.000000	102.199036
2424.000000	102.216648
2422.000000	102.234953
2420.000000	102.250957
2418.000000	102.263275
2416.000000	102.278030
2414.000000	102.290735
2412.000000	102.303061
2410.000000	102.314791
2408.000000	102.327873
2406.000000	102.341248
2404.000000	102.357670
2402.000000	102.372998
2400.000000	102.391192
2398.000000	102.409027
2396.000000	102.427398
2394.000000	102.445103
2392.000000	102.464116
2390.000000	102.482005
2388.000000	102.497651
2386.000000	102.502926
2384.000000	102.493084
2382.000000	102.456615
2380.000000	102.386258
2378.000000	102.266855
2376.000000	102.100496
2374.000000	101.886460
2372.000000	101.636002
2370.000000	101.367986
2368.000000	101.114222
2366.000000	100.902172
2364.000000	100.762710
2362.000000	100.716737
2360.000000	100.776595
2358.000000	100.937316
2356.000000	101.201411
2354.000000	101.546079
2352.000000	101.930250
2350.000000	102.209710
2348.000000	102.196918
2346.000000	101.949650
2344.000000	101.685550
2342.000000	101.495471
2340.000000	101.386657
2338.000000	101.338749
2336.000000	101.338573
2334.000000	101.375128
2332.000000	101.442907
2330.000000	101.535742
2328.000000	101.652344
2326.000000	101.781828
2324.000000	101.915709
2322.000000	102.046559
2320.000000	102.172199
2318.000000	102.284127
2316.000000	102.387930
2314.000000	102.479017
2312.000000	102.559061
2310.000000	102.626220
2308.000000	102.682648
2306.000000	102.727054
2304.000000	102.766525
2302.000000	102.798493
2300.000000	102.826131
2298.000000	102.847991
2296.000000	102.868192
2294.000000	102.885585
2292.000000	102.902850
2290.000000	102.916317
2288.000000	102.929200
2286.000000	102.939644
2284.000000	102.948525
2282.000000	102.948984
2280.000000	102.948595
2278.000000	102.946782
2276.000000	102.945478
2274.000000	102.940945
2272.000000	102.937926
2270.000000	102.933661
2268.000000	102.930389
2266.000000	102.925515
2264.000000	102.923227
2262.000000	102.921198
2260.000000	102.922875
2258.000000	102.922801
2256.000000	102.924591
2254.000000	102.927376
2252.000000	102.933317
2250.000000	102.938717
2248.000000	102.946996
2246.000000	102.957146
2244.000000	102.972687
2242.000000	102.987125
2240.000000	103.001967
2238.000000	103.015645
2236.000000	103.031274
2234.000000	103.045034
2232.000000	103.061936
2230.000000	103.075548
2228.000000	103.089466
2226.000000	103.099390
2224.000000	103.111343
2222.000000	103.121990
2220.000000	103.134284
2218.000000	103.144342
2216.000000	103.152914
2214.000000	103.156634
2212.000000	103.163685
2210.000000	103.170067
2208.000000	103.177093
2206.000000	103.180503
2204.000000	103.186856
2202.000000	103.193824
2200.000000	103.201062
2198.000000	103.205068
2196.000000	103.210555
2194.000000	103.212689
2192.000000	103.215470
2190.000000	103.215527
2188.000000	103.218477
2186.000000	103.219729
2184.000000	103.222369
2182.000000	103.222960
2180.000000	103.224941
2178.000000	103.222437
2176.000000	103.220421
2174.000000	103.213370
2172.000000	103.195857
2170.000000	103.172689
2168.000000	103.183799
2166.000000	103.207874
2164.000000	103.219491
2162.000000	103.221352
2160.000000	103.221578
2158.000000	103.219708
2156.000000	103.221642
2154.000000	103.221039
2152.000000	103.222363
2150.000000	103.222451
2148.000000	103.224660
2146.000000	103.226102
2144.000000	103.229347
2142.000000	103.228400
2140.000000	103.226747
2138.000000	103.222341
2136.000000	103.221796
2134.000000	103.221843
2132.000000	103.225422
2130.000000	103.226937
2128.000000	103.228515
2126.000000	103.226926
2124.000000	103.226845
2122.000000	103.229369
2120.000000	103.236056
2118.000000	103.241014
2116.000000	103.246368
2114.000000	103.252361
2112.000000	103.264195
2110.000000	103.276471
2108.000000	103.289095
2106.000000	103.302077
2104.000000	103.318490
2102.000000	103.332808
2100.000000	103.347982
2098.000000	103.361162
2096.000000	103.378965
2094.000000	103.392094
2092.000000	103.404326
2090.000000	103.414110
2088.000000	103.432076
2086.000000	103.449465
2084.000000	103.470202
2082.000000	103.486373
2080.000000	103.504472
2078.000000	103.518401
2076.000000	103.538447
2074.000000	103.555138
2072.000000	103.576517
2070.000000	103.596025
2068.000000	103.611781
2066.000000	103.621470
2064.000000	103.647181
2062.000000	103.677914
2060.000000	103.705258
2058.000000	103.727491
2056.000000	103.752458
2054.000000	103.774452
2052.000000	103.798130
2050.000000	103.818218
2048.000000	103.839825
2046.000000	103.858039
2044.000000	103.875594
2042.000000	103.886765
2040.000000	103.910444
2038.000000	103.931478
2036.000000	103.945017
2034.000000	103.953507
2032.000000	103.958403
2030.000000	103.943073
2028.000000	103.952930
2026.000000	103.987975
2024.000000	104.013355
2022.000000	104.023160
2020.000000	104.025517
2018.000000	104.016732
2016.000000	104.042964
2014.000000	104.086743
2012.000000	104.114506
2010.000000	104.129767
2008.000000	104.147173
2006.000000	104.161936
2004.000000	104.176200
2002.000000	104.183260
2000.000000	104.190222
1998.000000	104.193999
1996.000000	104.194289
1994.000000	104.155598
1992.000000	104.123971
1990.000000	104.154904
1988.000000	104.184295
1986.000000	104.194205
1984.000000	104.196342
1982.000000	104.188187
1980.000000	104.179186
1978.000000	104.166091
1976.000000	104.154908
1974.000000	104.142453
1972.000000	104.127198
1970.000000	104.086410
1968.000000	104.026924
1966.000000	104.013661
1964.000000	104.026193
1962.000000	103.973437
1960.000000	103.854240
1958.000000	103.824678
1956.000000	103.905785
1954.000000	103.935560
1952.000000	103.922992
1950.000000	103.891924
1948.000000	103.867317
1946.000000	103.819710
1944.000000	103.727628
1942.000000	103.689785
1940.000000	103.759950
1938.000000	103.782519
1936.000000	103.764815
1934.000000	103.735367
1932.000000	103.712423
1930.000000	103.685960
1928.000000	103.661574
1926.000000	103.606340
1924.000000	103.514587
1922.000000	103.460586
1920.000000	103.362665
1918.000000	103.235648
1916.000000	103.328971
1914.000000	103.394866
1912.000000	103.337418
1910.000000	103.248895
1908.000000	103.212950
1906.000000	103.189399
1904.000000	103.152866
1902.000000	103.101510
1900.000000	103.060831
1898.000000	102.998003
1896.000000	102.930051
1894.000000	102.898079
1892.000000	102.845033
1890.000000	102.736876
1888.000000	102.775732
1886.000000	102.838308
1884.000000	102.838353
1882.000000	102.819643
1880.000000	102.804452
1878.000000	102.780785
1876.000000	102.765798
1874.000000	102.727617
1872.000000	102.586152
1870.000000	102.302941
1868.000000	102.267800
1866.000000	102.464942
1864.000000	102.567712
1862.000000	102.554089
1860.000000	102.527619
1858.000000	102.497222
1856.000000	102.477773
1854.000000	102.441825
1852.000000	102.405726
1850.000000	102.328575
1848.000000	102.181033
1846.000000	101.779691
1844.000000	101.532825
1842.000000	101.870195
1840.000000	102.099998
1838.000000	102.052999
1836.000000	102.005093
1834.000000	101.935076
1832.000000	101.682879
1830.000000	101.429719
1828.000000	101.479958
1826.000000	101.444300
1824.000000	101.453104
1822.000000	101.558887
1820.000000	101.541794
1818.000000	101.455912
1816.000000	101.395766
1814.000000	101.304472
1812.000000	101.139471
1810.000000	101.034267
1808.000000	101.023215
1806.000000	100.962505
1804.000000	100.795856
1802.000000	100.534574
1800.000000	100.400941
1798.000000	100.404987
1796.000000	100.279688
1794.000000	99.779407
1792.000000	99.499456
1790.000000	99.793802
1788.000000	99.948620
1786.000000	99.751630
1784.000000	99.612705
1782.000000	99.520434
1780.000000	99.422984
1778.000000	99.374031
1776.000000	99.104763
1774.000000	98.392515
1772.000000	98.035331
1770.000000	98.363040
1768.000000	98.550979
1766.000000	98.730264
1764.000000	98.582942
1762.000000	98.247795
1760.000000	98.275448
1758.000000	98.200442
1756.000000	98.070159
1754.000000	97.867261
1752.000000	97.239139
1750.000000	97.017957
1748.000000	97.188482
1746.000000	97.236773
1744.000000	97.097875
1742.000000	96.776452
1740.000000	96.463208
1738.000000	96.426315
1736.000000	95.655230
1734.000000	94.866791
1732.000000	95.605377
1730.000000	96.310292
1728.000000	96.482680
1726.000000	96.473885
1724.000000	96.382384
1722.000000	96.224508
1720.000000	95.480101
1718.000000	94.447615
1716.000000	94.637479
1714.000000	95.391761
1712.000000	95.760721
1710.000000	95.705632
1708.000000	95.408118
1706.000000	95.046231
1704.000000	94.847660
1702.000000	93.877137
1700.000000	93.154594
1698.000000	93.415390
1696.000000	93.339016
1694.000000	94.241591
1692.000000	95.036622
1690.000000	94.981135
1688.000000	94.569369
1686.000000	93.245953
1684.000000	92.743257
1682.000000	93.921297
1680.000000	94.596572
1678.000000	94.440090
1676.000000	93.870551
1674.000000	93.857660
1672.000000	93.901296
1670.000000	93.541596
1668.000000	93.742520
1666.000000	94.046616
1664.000000	93.754956
1662.000000	93.604041
1660.000000	93.812794
1658.000000	93.721325
1656.000000	92.616649
1654.000000	90.561070
1652.000000	90.692359
1650.000000	92.293786
1648.000000	92.185552
1646.000000	91.878314
1644.000000	92.469987
1642.000000	92.811652
1640.000000	92.591726
1638.000000	91.821086
1636.000000	90.920652
1634.000000	91.288573
1632.000000	91.912120
1630.000000	91.749097
1628.000000	91.357614
1626.000000	90.958626
1624.000000	90.368310
1622.000000	90.039790
1620.000000	89.664948
1618.000000	88.572338
1616.000000	88.067741
1614.000000	88.350246
1612.000000	87.997839
1610.000000	87.375354
1608.000000	87.059123
1606.000000	87.102879
1604.000000	87.300557
1602.000000	87.547730
1600.000000	87.789196
1598.000000	87.996167
1596.000000	88.139811
1594.000000	88.255397
1592.000000	88.328371
1590.000000	88.338883
1588.000000	88.308217
1586.000000	88.245534
1584.000000	88.171366
1582.000000	88.120373
1580.000000	87.965429
1578.000000	87.161126
1576.000000	86.589136
1574.000000	87.321234
1572.000000	87.551752
1570.000000	87.122338
1568.000000	87.170804
1566.000000	87.231253
1564.000000	86.931565
1562.000000	85.809693
1560.000000	83.990943
1558.000000	84.003191
1556.000000	85.295120
1554.000000	86.026269
1552.000000	86.587160
1550.000000	86.912062
1548.000000	87.095139
1546.000000	86.964674
1544.000000	86.578214
1542.000000	85.876519
1540.000000	85.497532
1538.000000	86.673099
1536.000000	87.842432
1534.000000	87.881537
1532.000000	88.183858
1530.000000	88.490252
1528.000000	88.317848
1526.000000	88.034603
1524.000000	87.674050
1522.000000	87.008669
1520.000000	87.116869
1518.000000	87.457748
1516.000000	87.439826
1514.000000	87.424601
1512.000000	87.225945
1510.000000	86.686061
1508.000000	85.328248
1506.000000	84.611074
1504.000000	85.069879
1502.000000	84.393141
1500.000000	81.921016
1498.000000	78.579134
1496.000000	76.080286
1494.000000	75.778947
1492.000000	76.868074
1490.000000	78.566802
1488.000000	80.523176
1486.000000	82.160256
1484.000000	83.235011
1482.000000	83.745929
1480.000000	83.980896
1478.000000	83.885359
1476.000000	83.488815
1474.000000	82.887182
1472.000000	82.704753
1470.000000	83.057342
1468.000000	82.955941
1466.000000	82.323674
1464.000000	81.935997
1462.000000	81.714289
1460.000000	80.704059
1458.000000	78.901456
1456.000000	77.903892
1454.000000	77.764461
1452.000000	77.371987
1450.000000	77.435829
1448.000000	78.240610
1446.000000	79.240083
1444.000000	79.755341
1442.000000	79.877754
1440.000000	79.751701
1438.000000	79.272063
1436.000000	79.217896
1434.000000	79.770456
1432.000000	79.893596
1430.000000	79.817111
1428.000000	79.862692
1426.000000	79.879496
1424.000000	79.762410
1422.000000	79.492394
1420.000000	78.885803
1418.000000	78.850428
1416.000000	79.132232
1414.000000	79.056331
1412.000000	78.709317
1410.000000	78.190459
1408.000000	77.437254
1406.000000	76.600623
1404.000000	76.134293
1402.000000	76.159690
1400.000000	76.351049
1398.000000	76.767669
1396.000000	77.128433
1394.000000	77.453035
1392.000000	77.839449
1390.000000	77.847188
1388.000000	77.486837
1386.000000	77.232085
1384.000000	77.186930
1382.000000	77.301347
1380.000000	77.394511
1378.000000	77.335865
1376.000000	77.159336
1374.000000	77.011279
1372.000000	77.004964
1370.000000	76.927830
1368.000000	76.771869
1366.000000	76.609086
1364.000000	76.350938
1362.000000	76.157862
1360.000000	76.095761
1358.000000	75.990858
1356.000000	75.800153
1354.000000	75.595793
1352.000000	75.392433
1350.000000	75.179442
1348.000000	74.963700
1346.000000	74.740393
1344.000000	74.494625
1342.000000	74.208034
1340.000000	73.931599
1338.000000	73.797981
1336.000000	73.744291
1334.000000	73.662092
1332.000000	73.515792
1330.000000	73.330345
1328.000000	73.111875
1326.000000	72.870344
1324.000000	72.607182
1322.000000	72.322574
1320.000000	72.012698
1318.000000	71.715136
1316.000000	71.423625
1314.000000	71.116942
1312.000000	70.810521
1310.000000	70.505224
1308.000000	70.183006
1306.000000	69.856090
1304.000000	69.516496
1302.000000	69.173205
1300.000000	68.830799
1298.000000	68.488070
1296.000000	68.134383
1294.000000	67.772906
1292.000000	67.393880
1290.000000	67.001058
1288.000000	66.599075
1286.000000	66.201921
1284.000000	65.792105
1282.000000	65.362716
1280.000000	64.908015
1278.000000	64.425309
1276.000000	63.891420
1274.000000	63.279894
1272.000000	62.553567
1270.000000	61.672811
1268.000000	60.572327
1266.000000	59.260298
1264.000000	57.898034
1262.000000	56.802535
1260.000000	56.253981
1258.000000	56.259954
1256.000000	56.547673
1254.000000	56.791807
1252.000000	56.791588
1250.000000	56.550884
1248.000000	56.156221
1246.000000	55.687168
1244.000000	55.181232
1242.000000	54.667223
1240.000000	54.161558
1238.000000	53.672854
1236.000000	53.197011
1234.000000	52.737450
1232.000000	52.286606
1230.000000	51.844601
1228.000000	51.402455
1226.000000	50.955170
1224.000000	50.496780
1222.000000	50.026660
1220.000000	49.534139
1218.000000	49.024297
1216.000000	48.503220
1214.000000	47.990439
1212.000000	47.504047
1210.000000	47.055753
1208.000000	46.639659
1206.000000	46.243399
1204.000000	45.847483
1202.000000	45.449748
1200.000000	45.053812
1198.000000	44.668666
1196.000000	44.281623
1194.000000	43.881229
1192.000000	43.464317
1190.000000	43.035232
1188.000000	42.595032
1186.000000	42.129711
1184.000000	41.547865
1182.000000	40.817515
1180.000000	40.253084
1178.000000	40.009598
1176.000000	39.778023
1174.000000	39.421476
1172.000000	38.995870
1170.000000	38.548730
1168.000000	38.084155
1166.000000	37.611442
1164.000000	37.143955
1162.000000	36.686101
1160.000000	36.232419
1158.000000	35.800321
1156.000000	35.381279
1154.000000	34.963850
1152.000000	34.539912
1150.000000	34.118894
1148.000000	33.686417
1146.000000	33.247305
1144.000000	32.820648
1142.000000	32.444514
1140.000000	32.133434
1138.000000	31.821477
1136.000000	31.463657
1134.000000	31.072339
1132.000000	30.657913
1130.000000	30.232739
1128.000000	29.812548
1126.000000	29.395242
1124.000000	28.967411
1122.000000	28.527557
1120.000000	28.076690
1118.000000	27.624285
1116.000000	27.162658
1114.000000	26.697675
1112.000000	26.231799
1110.000000	25.768666
1108.000000	25.315459
1106.000000	24.884295
1104.000000	24.470817
1102.000000	24.062208
1100.000000	23.650928
1098.000000	23.246278
1096.000000	22.850572
1094.000000	22.467445
1092.000000	22.100529
1090.000000	21.751808
1088.000000	21.411759
1086.000000	21.074844
1084.000000	20.726855
1082.000000	20.368896
1080.000000	20.032827
1078.000000	19.730319
1076.000000	19.453609
1074.000000	19.223257
1072.000000	19.010489
1070.000000	18.788985
1068.000000	18.557592
1066.000000	18.325540
1064.000000	18.095232
1062.000000	17.862845
1060.000000	17.613677
1058.000000	17.325880
1056.000000	16.939632
1054.000000	16.431519
1052.000000	15.926911
1050.000000	15.627372
1048.000000	15.592053
1046.000000	15.673124
1044.000000	15.675127
1042.000000	15.559511
1040.000000	15.376373
1038.000000	15.161272
1036.000000	14.934396
1034.000000	14.701429
1032.000000	14.453948
1030.000000	14.197301
1028.000000	13.934575
1026.000000	13.666578
1024.000000	13.393723
1022.000000	13.127124
1020.000000	12.875472
1018.000000	12.643089
1016.000000	12.428859
1014.000000	12.239100
1012.000000	12.068647
1010.000000	11.909139
1008.000000	11.745436
1006.000000	11.569627
1004.000000	11.375606
1002.000000	11.165770
1000.000000	10.939554
