PE IR       SUBTECH     SPECTRUM    ASCII       PEDS        4.00        
   -1
TE109A_035_105K_BG.ASC
20/04/21
14:14:40.00
20/04/21
14:14:40.00
Administrator
TE109A, Tuesday, April 21 2020, 035.
1000.000000
#HDR
-1
-1
#GR
cm-1
EGY
1.0
0.0
6000.000000
-2.000000
2501
8
105.498555
10.960977
#DATA
6000.000000	16.696175
5998.000000	16.726816
5996.000000	16.757690
5994.000000	16.788845
5992.000000	16.820411
5990.000000	16.853871
5988.000000	16.888445
5986.000000	16.922382
5984.000000	16.955269
5982.000000	16.986855
5980.000000	17.018967
5978.000000	17.053323
5976.000000	17.086796
5974.000000	17.121984
5972.000000	17.156719
5970.000000	17.191108
5968.000000	17.224958
5966.000000	17.257095
5964.000000	17.289727
5962.000000	17.324370
5960.000000	17.360301
5958.000000	17.396436
5956.000000	17.430283
5954.000000	17.463648
5952.000000	17.497534
5950.000000	17.532874
5948.000000	17.568976
5946.000000	17.603394
5944.000000	17.634510
5942.000000	17.665815
5940.000000	17.699329
5938.000000	17.735183
5936.000000	17.770638
5934.000000	17.803865
5932.000000	17.837244
5930.000000	17.870990
5928.000000	17.905867
5926.000000	17.941632
5924.000000	17.976796
5922.000000	18.011527
5920.000000	18.045962
5918.000000	18.082572
5916.000000	18.120704
5914.000000	18.157926
5912.000000	18.193641
5910.000000	18.229297
5908.000000	18.265393
5906.000000	18.302281
5904.000000	18.338288
5902.000000	18.374541
5900.000000	18.411495
5898.000000	18.448516
5896.000000	18.483617
5894.000000	18.519324
5892.000000	18.555292
5890.000000	18.592643
5888.000000	18.630864
5886.000000	18.666899
5884.000000	18.701227
5882.000000	18.736640
5880.000000	18.773960
5878.000000	18.813385
5876.000000	18.849539
5874.000000	18.882965
5872.000000	18.917891
5870.000000	18.957020
5868.000000	18.996177
5866.000000	19.032554
5864.000000	19.066368
5862.000000	19.102735
5860.000000	19.141269
5858.000000	19.179595
5856.000000	19.217073
5854.000000	19.255808
5852.000000	19.294863
5850.000000	19.333231
5848.000000	19.371748
5846.000000	19.413362
5844.000000	19.456087
5842.000000	19.498089
5840.000000	19.537275
5838.000000	19.577292
5836.000000	19.619364
5834.000000	19.663272
5832.000000	19.705553
5830.000000	19.745662
5828.000000	19.785743
5826.000000	19.826998
5824.000000	19.867803
5822.000000	19.908165
5820.000000	19.949352
5818.000000	19.992086
5816.000000	20.033889
5814.000000	20.074112
5812.000000	20.113054
5810.000000	20.152437
5808.000000	20.192275
5806.000000	20.233980
5804.000000	20.276958
5802.000000	20.319546
5800.000000	20.359616
5798.000000	20.398048
5796.000000	20.437735
5794.000000	20.479846
5792.000000	20.522587
5790.000000	20.563725
5788.000000	20.603451
5786.000000	20.644681
5784.000000	20.687418
5782.000000	20.731515
5780.000000	20.773500
5778.000000	20.814302
5776.000000	20.854569
5774.000000	20.897289
5772.000000	20.941340
5770.000000	20.983470
5768.000000	21.023488
5766.000000	21.063781
5764.000000	21.104848
5762.000000	21.148416
5760.000000	21.191266
5758.000000	21.233964
5756.000000	21.276887
5754.000000	21.319410
5752.000000	21.361746
5750.000000	21.402897
5748.000000	21.443444
5746.000000	21.484630
5744.000000	21.525505
5742.000000	21.567484
5740.000000	21.608853
5738.000000	21.650069
5736.000000	21.690038
5734.000000	21.729363
5732.000000	21.769994
5730.000000	21.811953
5728.000000	21.853719
5726.000000	21.894721
5724.000000	21.934970
5722.000000	21.976790
5720.000000	22.018365
5718.000000	22.061800
5716.000000	22.105896
5714.000000	22.149022
5712.000000	22.190899
5710.000000	22.234300
5708.000000	22.280437
5706.000000	22.326731
5704.000000	22.370606
5702.000000	22.413911
5700.000000	22.456820
5698.000000	22.500900
5696.000000	22.545927
5694.000000	22.591334
5692.000000	22.636802
5690.000000	22.683632
5688.000000	22.728802
5686.000000	22.771658
5684.000000	22.814344
5682.000000	22.860942
5680.000000	22.909757
5678.000000	22.956617
5676.000000	23.002177
5674.000000	23.048338
5672.000000	23.095022
5670.000000	23.140578
5668.000000	23.184802
5666.000000	23.228995
5664.000000	23.274113
5662.000000	23.320662
5660.000000	23.367947
5658.000000	23.415360
5656.000000	23.461668
5654.000000	23.506163
5652.000000	23.549409
5650.000000	23.593801
5648.000000	23.640419
5646.000000	23.687928
5644.000000	23.734653
5642.000000	23.780413
5640.000000	23.825078
5638.000000	23.869684
5636.000000	23.913762
5634.000000	23.959120
5632.000000	24.005761
5630.000000	24.053165
5628.000000	24.099745
5626.000000	24.144472
5624.000000	24.187364
5622.000000	24.230821
5620.000000	24.276938
5618.000000	24.325443
5616.000000	24.372958
5614.000000	24.418726
5612.000000	24.464190
5610.000000	24.511510
5608.000000	24.558481
5606.000000	24.604038
5604.000000	24.648344
5602.000000	24.693319
5600.000000	24.739022
5598.000000	24.785692
5596.000000	24.830168
5594.000000	24.875492
5592.000000	24.921853
5590.000000	24.970068
5588.000000	25.018802
5586.000000	25.066585
5584.000000	25.112531
5582.000000	25.156958
5580.000000	25.202608
5578.000000	25.252044
5576.000000	25.301845
5574.000000	25.350278
5572.000000	25.396893
5570.000000	25.443675
5568.000000	25.491175
5566.000000	25.540135
5564.000000	25.589313
5562.000000	25.637845
5560.000000	25.684746
5558.000000	25.732121
5556.000000	25.779192
5554.000000	25.825679
5552.000000	25.871879
5550.000000	25.918560
5548.000000	25.966343
5546.000000	26.015062
5544.000000	26.063672
5542.000000	26.112944
5540.000000	26.160614
5538.000000	26.207781
5536.000000	26.254961
5534.000000	26.303025
5532.000000	26.351802
5530.000000	26.400985
5528.000000	26.448217
5526.000000	26.492059
5524.000000	26.535328
5522.000000	26.582315
5520.000000	26.631991
5518.000000	26.682769
5516.000000	26.733391
5514.000000	26.783499
5512.000000	26.829083
5510.000000	26.871612
5508.000000	26.917322
5506.000000	26.968433
5504.000000	27.020789
5502.000000	27.069506
5500.000000	27.115467
5498.000000	27.160959
5496.000000	27.203414
5494.000000	27.246210
5492.000000	27.291455
5490.000000	27.343839
5488.000000	27.398718
5486.000000	27.452977
5484.000000	27.505241
5482.000000	27.555887
5480.000000	27.602540
5478.000000	27.643375
5476.000000	27.685724
5474.000000	27.737890
5472.000000	27.794706
5470.000000	27.847525
5468.000000	27.894928
5466.000000	27.942938
5464.000000	27.989401
5462.000000	28.036556
5460.000000	28.087758
5458.000000	28.143385
5456.000000	28.196700
5454.000000	28.244973
5452.000000	28.289876
5450.000000	28.332499
5448.000000	28.373413
5446.000000	28.416601
5444.000000	28.462322
5442.000000	28.515958
5440.000000	28.571730
5438.000000	28.622545
5436.000000	28.668676
5434.000000	28.715108
5432.000000	28.762230
5430.000000	28.809778
5428.000000	28.863157
5426.000000	28.924921
5424.000000	28.985004
5422.000000	29.038652
5420.000000	29.087264
5418.000000	29.127148
5416.000000	29.159970
5414.000000	29.195393
5412.000000	29.242792
5410.000000	29.303642
5408.000000	29.366978
5406.000000	29.426731
5404.000000	29.480981
5402.000000	29.532355
5400.000000	29.578773
5398.000000	29.617062
5396.000000	29.653269
5394.000000	29.701461
5392.000000	29.761814
5390.000000	29.821270
5388.000000	29.869587
5386.000000	29.917191
5384.000000	29.971766
5382.000000	30.028812
5380.000000	30.072806
5378.000000	30.111529
5376.000000	30.159164
5374.000000	30.220889
5372.000000	30.283402
5370.000000	30.338533
5368.000000	30.388278
5366.000000	30.437357
5364.000000	30.488114
5362.000000	30.542565
5360.000000	30.596967
5358.000000	30.641328
5356.000000	30.676481
5354.000000	30.717995
5352.000000	30.771756
5350.000000	30.827752
5348.000000	30.869292
5346.000000	30.907797
5344.000000	30.956880
5342.000000	31.009285
5340.000000	31.059771
5338.000000	31.113334
5336.000000	31.176275
5334.000000	31.239211
5332.000000	31.291995
5330.000000	31.336607
5328.000000	31.384335
5326.000000	31.440713
5324.000000	31.502910
5322.000000	31.559928
5320.000000	31.610668
5318.000000	31.660269
5316.000000	31.709957
5314.000000	31.760808
5312.000000	31.808271
5310.000000	31.853217
5308.000000	31.900869
5306.000000	31.954311
5304.000000	32.010065
5302.000000	32.064464
5300.000000	32.119633
5298.000000	32.175075
5296.000000	32.225711
5294.000000	32.268706
5292.000000	32.310525
5290.000000	32.359938
5288.000000	32.416671
5286.000000	32.474409
5284.000000	32.528756
5282.000000	32.583862
5280.000000	32.638764
5278.000000	32.693074
5276.000000	32.746159
5274.000000	32.798333
5272.000000	32.847483
5270.000000	32.893539
5268.000000	32.935437
5266.000000	32.976190
5264.000000	33.024131
5262.000000	33.085401
5260.000000	33.147963
5258.000000	33.198466
5256.000000	33.243548
5254.000000	33.294983
5252.000000	33.348585
5250.000000	33.397924
5248.000000	33.444508
5246.000000	33.495891
5244.000000	33.554958
5242.000000	33.617780
5240.000000	33.678490
5238.000000	33.733580
5236.000000	33.784094
5234.000000	33.832041
5232.000000	33.879399
5230.000000	33.926909
5228.000000	33.973442
5226.000000	34.024796
5224.000000	34.083101
5222.000000	34.142542
5220.000000	34.195391
5218.000000	34.247699
5216.000000	34.302759
5214.000000	34.358562
5212.000000	34.407197
5210.000000	34.445204
5208.000000	34.483770
5206.000000	34.537425
5204.000000	34.603953
5202.000000	34.669617
5200.000000	34.724886
5198.000000	34.777878
5196.000000	34.832978
5194.000000	34.889999
5192.000000	34.943905
5190.000000	34.995323
5188.000000	35.046210
5186.000000	35.099453
5184.000000	35.155496
5182.000000	35.212684
5180.000000	35.268237
5178.000000	35.324470
5176.000000	35.381828
5174.000000	35.436808
5172.000000	35.488989
5170.000000	35.542495
5168.000000	35.598128
5166.000000	35.652893
5164.000000	35.704631
5162.000000	35.758620
5160.000000	35.814470
5158.000000	35.870054
5156.000000	35.925221
5154.000000	35.982216
5152.000000	36.039267
5150.000000	36.093161
5148.000000	36.146718
5146.000000	36.200298
5144.000000	36.252751
5142.000000	36.304852
5140.000000	36.359701
5138.000000	36.417696
5136.000000	36.474340
5134.000000	36.528348
5132.000000	36.581316
5130.000000	36.636012
5128.000000	36.691680
5126.000000	36.746369
5124.000000	36.799387
5122.000000	36.852115
5120.000000	36.905943
5118.000000	36.961168
5116.000000	37.016338
5114.000000	37.070380
5112.000000	37.122901
5110.000000	37.176792
5108.000000	37.232884
5106.000000	37.290228
5104.000000	37.346260
5102.000000	37.402354
5100.000000	37.457584
5098.000000	37.513765
5096.000000	37.569838
5094.000000	37.626315
5092.000000	37.682554
5090.000000	37.739943
5088.000000	37.797848
5086.000000	37.854993
5084.000000	37.909968
5082.000000	37.965606
5080.000000	38.022343
5078.000000	38.080834
5076.000000	38.138576
5074.000000	38.194710
5072.000000	38.250248
5070.000000	38.307604
5068.000000	38.365043
5066.000000	38.420390
5064.000000	38.475962
5062.000000	38.533863
5060.000000	38.591380
5058.000000	38.647560
5056.000000	38.703241
5054.000000	38.759948
5052.000000	38.817280
5050.000000	38.875053
5048.000000	38.931185
5046.000000	38.986309
5044.000000	39.041220
5042.000000	39.096532
5040.000000	39.152667
5038.000000	39.210693
5036.000000	39.268044
5034.000000	39.323574
5032.000000	39.377844
5030.000000	39.433716
5028.000000	39.490028
5026.000000	39.547619
5024.000000	39.604791
5022.000000	39.660891
5020.000000	39.715981
5018.000000	39.772558
5016.000000	39.829292
5014.000000	39.885708
5012.000000	39.942282
5010.000000	40.000198
5008.000000	40.058987
5006.000000	40.117871
5004.000000	40.175466
5002.000000	40.232136
5000.000000	40.289704
4998.000000	40.347223
4996.000000	40.403158
4994.000000	40.461102
4992.000000	40.521834
4990.000000	40.582030
4988.000000	40.639635
4986.000000	40.697761
4984.000000	40.755926
4982.000000	40.813018
4980.000000	40.870698
4978.000000	40.929741
4976.000000	40.986176
4974.000000	41.041286
4972.000000	41.098840
4970.000000	41.159668
4968.000000	41.218092
4966.000000	41.274120
4964.000000	41.331116
4962.000000	41.390524
4960.000000	41.449141
4958.000000	41.504700
4956.000000	41.558970
4954.000000	41.616097
4952.000000	41.674692
4950.000000	41.732414
4948.000000	41.788576
4946.000000	41.846551
4944.000000	41.904503
4942.000000	41.962112
4940.000000	42.018425
4938.000000	42.075306
4936.000000	42.131905
4934.000000	42.189667
4932.000000	42.247624
4930.000000	42.305557
4928.000000	42.361944
4926.000000	42.418259
4924.000000	42.475217
4922.000000	42.534139
4920.000000	42.592251
4918.000000	42.649202
4916.000000	42.704295
4914.000000	42.761495
4912.000000	42.821414
4910.000000	42.882523
4908.000000	42.940550
4906.000000	42.997109
4904.000000	43.055313
4902.000000	43.116541
4900.000000	43.176138
4898.000000	43.234161
4896.000000	43.292929
4894.000000	43.353111
4892.000000	43.411897
4890.000000	43.471406
4888.000000	43.532186
4886.000000	43.592653
4884.000000	43.651997
4882.000000	43.710825
4880.000000	43.768362
4878.000000	43.827196
4876.000000	43.887512
4874.000000	43.948523
4872.000000	44.008261
4870.000000	44.066091
4868.000000	44.122476
4866.000000	44.180703
4864.000000	44.240052
4862.000000	44.298985
4860.000000	44.358410
4858.000000	44.419569
4856.000000	44.478516
4854.000000	44.534430
4852.000000	44.590032
4850.000000	44.648606
4848.000000	44.707585
4846.000000	44.764628
4844.000000	44.819811
4842.000000	44.878278
4840.000000	44.938903
4838.000000	44.998469
4836.000000	45.055265
4834.000000	45.111686
4832.000000	45.168233
4830.000000	45.226892
4828.000000	45.287135
4826.000000	45.346281
4824.000000	45.401833
4822.000000	45.458278
4820.000000	45.518347
4818.000000	45.579970
4816.000000	45.637371
4814.000000	45.693718
4812.000000	45.753262
4810.000000	45.816085
4808.000000	45.877625
4806.000000	45.936645
4804.000000	45.995659
4802.000000	46.056496
4800.000000	46.116792
4798.000000	46.175918
4796.000000	46.234928
4794.000000	46.295829
4792.000000	46.357182
4790.000000	46.419151
4788.000000	46.478597
4786.000000	46.537233
4784.000000	46.598425
4782.000000	46.660929
4780.000000	46.718668
4778.000000	46.775383
4776.000000	46.836412
4774.000000	46.900045
4772.000000	46.961036
4770.000000	47.020434
4768.000000	47.078969
4766.000000	47.138555
4764.000000	47.197983
4762.000000	47.256806
4760.000000	47.314141
4758.000000	47.373642
4756.000000	47.434830
4754.000000	47.493330
4752.000000	47.548092
4750.000000	47.605271
4748.000000	47.665900
4746.000000	47.726800
4744.000000	47.784810
4742.000000	47.841228
4740.000000	47.898882
4738.000000	47.959340
4736.000000	48.018813
4734.000000	48.077524
4732.000000	48.136500
4730.000000	48.195921
4728.000000	48.254024
4726.000000	48.312125
4724.000000	48.370654
4722.000000	48.431163
4720.000000	48.492977
4718.000000	48.554132
4716.000000	48.613405
4714.000000	48.674152
4712.000000	48.736490
4710.000000	48.799689
4708.000000	48.862900
4706.000000	48.926916
4704.000000	48.988733
4702.000000	49.050666
4700.000000	49.115156
4698.000000	49.181230
4696.000000	49.242780
4694.000000	49.302280
4692.000000	49.363346
4690.000000	49.427152
4688.000000	49.490425
4686.000000	49.552011
4684.000000	49.611201
4682.000000	49.672503
4680.000000	49.735091
4678.000000	49.796999
4676.000000	49.856269
4674.000000	49.915879
4672.000000	49.976443
4670.000000	50.038654
4668.000000	50.100922
4666.000000	50.163612
4664.000000	50.225512
4662.000000	50.286312
4660.000000	50.347469
4658.000000	50.409058
4656.000000	50.468542
4654.000000	50.527370
4652.000000	50.588926
4650.000000	50.654028
4648.000000	50.716918
4646.000000	50.777736
4644.000000	50.837753
4642.000000	50.899100
4640.000000	50.960120
4638.000000	51.022545
4636.000000	51.084192
4634.000000	51.145705
4632.000000	51.206092
4630.000000	51.266107
4628.000000	51.326651
4626.000000	51.388943
4624.000000	51.449877
4622.000000	51.510426
4620.000000	51.573300
4618.000000	51.637895
4616.000000	51.700649
4614.000000	51.764036
4612.000000	51.828835
4610.000000	51.893865
4608.000000	51.957494
4606.000000	52.022341
4604.000000	52.089287
4602.000000	52.156010
4600.000000	52.219589
4598.000000	52.283325
4596.000000	52.349245
4594.000000	52.416035
4592.000000	52.481182
4590.000000	52.544995
4588.000000	52.607713
4586.000000	52.671142
4584.000000	52.734827
4582.000000	52.800339
4580.000000	52.865832
4578.000000	52.929659
4576.000000	52.991334
4574.000000	53.055331
4572.000000	53.121847
4570.000000	53.188044
4568.000000	53.251188
4566.000000	53.313276
4564.000000	53.375973
4562.000000	53.440408
4560.000000	53.504795
4558.000000	53.568790
4556.000000	53.631526
4554.000000	53.693616
4552.000000	53.754421
4550.000000	53.816274
4548.000000	53.879531
4546.000000	53.944130
4544.000000	54.006784
4542.000000	54.068737
4540.000000	54.130827
4538.000000	54.194308
4536.000000	54.258388
4534.000000	54.322695
4532.000000	54.384663
4530.000000	54.447309
4528.000000	54.511299
4526.000000	54.576612
4524.000000	54.640694
4522.000000	54.705306
4520.000000	54.769822
4518.000000	54.833971
4516.000000	54.895920
4514.000000	54.959071
4512.000000	55.023895
4510.000000	55.089421
4508.000000	55.154753
4506.000000	55.220345
4504.000000	55.286811
4502.000000	55.353977
4500.000000	55.419702
4498.000000	55.485092
4496.000000	55.550747
4494.000000	55.614812
4492.000000	55.678641
4490.000000	55.744320
4488.000000	55.809461
4486.000000	55.875511
4484.000000	55.941708
4482.000000	56.006256
4480.000000	56.069025
4478.000000	56.132052
4476.000000	56.194730
4474.000000	56.258855
4472.000000	56.324688
4470.000000	56.390471
4468.000000	56.453112
4466.000000	56.515824
4464.000000	56.580433
4462.000000	56.643783
4460.000000	56.704316
4458.000000	56.765352
4456.000000	56.827396
4454.000000	56.891120
4452.000000	56.953844
4450.000000	57.014688
4448.000000	57.076220
4446.000000	57.140073
4444.000000	57.203712
4442.000000	57.267795
4440.000000	57.330208
4438.000000	57.391950
4436.000000	57.454546
4434.000000	57.518670
4432.000000	57.582728
4430.000000	57.646580
4428.000000	57.709541
4426.000000	57.774005
4424.000000	57.837402
4422.000000	57.898999
4420.000000	57.961042
4418.000000	58.025657
4416.000000	58.089254
4414.000000	58.152342
4412.000000	58.216308
4410.000000	58.283300
4408.000000	58.350945
4406.000000	58.416911
4404.000000	58.480114
4402.000000	58.543555
4400.000000	58.606762
4398.000000	58.671232
4396.000000	58.736407
4394.000000	58.801471
4392.000000	58.866600
4390.000000	58.931057
4388.000000	58.992406
4386.000000	59.052583
4384.000000	59.110876
4382.000000	59.169792
4380.000000	59.231483
4378.000000	59.292205
4376.000000	59.350695
4374.000000	59.412357
4372.000000	59.474997
4370.000000	59.537292
4368.000000	59.598636
4366.000000	59.657611
4364.000000	59.714845
4362.000000	59.775815
4360.000000	59.839530
4358.000000	59.903206
4356.000000	59.965371
4354.000000	60.029238
4352.000000	60.093296
4350.000000	60.155844
4348.000000	60.217489
4346.000000	60.280987
4344.000000	60.345617
4342.000000	60.409592
4340.000000	60.471900
4338.000000	60.535238
4336.000000	60.598325
4334.000000	60.662438
4332.000000	60.727276
4330.000000	60.790768
4328.000000	60.854644
4326.000000	60.921904
4324.000000	60.988693
4322.000000	61.055511
4320.000000	61.122003
4318.000000	61.187782
4316.000000	61.255354
4314.000000	61.324971
4312.000000	61.392428
4310.000000	61.458411
4308.000000	61.523920
4306.000000	61.591733
4304.000000	61.660552
4302.000000	61.726547
4300.000000	61.791039
4298.000000	61.858544
4296.000000	61.925194
4294.000000	61.988435
4292.000000	62.051203
4290.000000	62.116121
4288.000000	62.178492
4286.000000	62.239366
4284.000000	62.302087
4282.000000	62.365822
4280.000000	62.426790
4278.000000	62.486363
4276.000000	62.544961
4274.000000	62.604073
4272.000000	62.663554
4270.000000	62.723589
4268.000000	62.782592
4266.000000	62.841279
4264.000000	62.901185
4262.000000	62.963916
4260.000000	63.027023
4258.000000	63.090925
4256.000000	63.154746
4254.000000	63.218537
4252.000000	63.282837
4250.000000	63.346616
4248.000000	63.409290
4246.000000	63.473801
4244.000000	63.537975
4242.000000	63.601871
4240.000000	63.667175
4238.000000	63.733108
4236.000000	63.796644
4234.000000	63.860728
4232.000000	63.926437
4230.000000	63.991610
4228.000000	64.055470
4226.000000	64.119413
4224.000000	64.181229
4222.000000	64.244510
4220.000000	64.310777
4218.000000	64.376767
4216.000000	64.440030
4214.000000	64.503901
4212.000000	64.569714
4210.000000	64.636036
4208.000000	64.701573
4206.000000	64.769975
4204.000000	64.840231
4202.000000	64.909013
4200.000000	64.975430
4198.000000	65.041221
4196.000000	65.107433
4194.000000	65.177660
4192.000000	65.249160
4190.000000	65.317515
4188.000000	65.383494
4186.000000	65.451390
4184.000000	65.520459
4182.000000	65.586814
4180.000000	65.649784
4178.000000	65.715124
4176.000000	65.781806
4174.000000	65.847038
4172.000000	65.910473
4170.000000	65.974077
4168.000000	66.039660
4166.000000	66.106312
4164.000000	66.169945
4162.000000	66.232992
4160.000000	66.296371
4158.000000	66.359732
4156.000000	66.423596
4154.000000	66.489172
4152.000000	66.555221
4150.000000	66.621746
4148.000000	66.686329
4146.000000	66.751180
4144.000000	66.817043
4142.000000	66.882725
4140.000000	66.947364
4138.000000	67.012483
4136.000000	67.077041
4134.000000	67.142070
4132.000000	67.207975
4130.000000	67.275879
4128.000000	67.342972
4126.000000	67.408386
4124.000000	67.473583
4122.000000	67.541457
4120.000000	67.609851
4118.000000	67.676967
4116.000000	67.742536
4114.000000	67.808205
4112.000000	67.872671
4110.000000	67.935748
4108.000000	67.999420
4106.000000	68.065949
4104.000000	68.131572
4102.000000	68.196076
4100.000000	68.261319
4098.000000	68.326595
4096.000000	68.389607
4094.000000	68.452564
4092.000000	68.517100
4090.000000	68.584282
4088.000000	68.652752
4086.000000	68.723218
4084.000000	68.793096
4082.000000	68.860736
4080.000000	68.928781
4078.000000	68.998479
4076.000000	69.064378
4074.000000	69.128979
4072.000000	69.195110
4070.000000	69.260461
4068.000000	69.324498
4066.000000	69.390356
4064.000000	69.456475
4062.000000	69.521373
4060.000000	69.584058
4058.000000	69.648290
4056.000000	69.714130
4054.000000	69.779780
4052.000000	69.843869
4050.000000	69.906981
4048.000000	69.968963
4046.000000	70.031566
4044.000000	70.096209
4042.000000	70.164841
4040.000000	70.234675
4038.000000	70.304393
4036.000000	70.372461
4034.000000	70.437762
4032.000000	70.502414
4030.000000	70.569547
4028.000000	70.635691
4026.000000	70.702616
4024.000000	70.771846
4022.000000	70.839809
4020.000000	70.906211
4018.000000	70.976297
4016.000000	71.048961
4014.000000	71.120072
4012.000000	71.184888
4010.000000	71.248015
4008.000000	71.316926
4006.000000	71.390543
4004.000000	71.461982
4002.000000	71.530153
4000.000000	71.594995
3998.000000	71.658668
3996.000000	71.722975
3994.000000	71.787654
3992.000000	71.851243
3990.000000	71.918071
3988.000000	71.986715
3986.000000	72.051774
3984.000000	72.113552
3982.000000	72.177239
3980.000000	72.240082
3978.000000	72.299270
3976.000000	72.357131
3974.000000	72.417560
3972.000000	72.479595
3970.000000	72.543723
3968.000000	72.610609
3966.000000	72.674913
3964.000000	72.727831
3962.000000	72.780146
3960.000000	72.842677
3958.000000	72.909282
3956.000000	72.972751
3954.000000	73.028646
3952.000000	73.067402
3950.000000	73.101860
3948.000000	73.159881
3946.000000	73.226305
3944.000000	73.277600
3942.000000	73.349871
3940.000000	73.448406
3938.000000	73.532254
3936.000000	73.573926
3934.000000	73.581837
3932.000000	73.619780
3930.000000	73.717141
3928.000000	73.805134
3926.000000	73.854829
3924.000000	73.912273
3922.000000	73.968317
3920.000000	73.985329
3918.000000	74.021323
3916.000000	74.143758
3914.000000	74.300588
3912.000000	74.411555
3910.000000	74.465815
3908.000000	74.424445
3906.000000	74.267481
3904.000000	74.137074
3902.000000	74.162222
3900.000000	74.336573
3898.000000	74.603922
3896.000000	74.803672
3894.000000	74.795374
3892.000000	74.739957
3890.000000	74.809461
3888.000000	74.817802
3886.000000	74.779523
3884.000000	74.898272
3882.000000	75.034312
3880.000000	75.150630
3878.000000	75.298296
3876.000000	75.343515
3874.000000	75.264610
3872.000000	75.095560
3870.000000	75.043847
3868.000000	75.220102
3866.000000	75.366171
3864.000000	75.472161
3862.000000	75.665860
3860.000000	75.828216
3858.000000	75.640955
3856.000000	74.930473
3854.000000	74.435285
3852.000000	74.897775
3850.000000	75.763328
3848.000000	76.248629
3846.000000	76.327105
3844.000000	76.260082
3842.000000	76.117316
3840.000000	75.834242
3838.000000	75.704667
3836.000000	75.983318
3834.000000	76.348260
3832.000000	76.575076
3830.000000	76.746983
3828.000000	76.859225
3826.000000	76.887525
3824.000000	76.740074
3822.000000	76.548776
3820.000000	76.567728
3818.000000	76.567459
3816.000000	76.629342
3814.000000	77.042295
3812.000000	77.409860
3810.000000	77.372545
3808.000000	77.167777
3806.000000	77.157518
3804.000000	77.106451
3802.000000	76.976152
3800.000000	77.206349
3798.000000	77.583408
3796.000000	77.815084
3794.000000	77.999459
3792.000000	78.132838
3790.000000	78.202166
3788.000000	78.235327
3786.000000	78.259630
3784.000000	78.299246
3782.000000	78.306809
3780.000000	78.306382
3778.000000	78.412235
3776.000000	78.561685
3774.000000	78.607295
3772.000000	78.520187
3770.000000	78.464439
3768.000000	78.543690
3766.000000	78.671981
3764.000000	78.788778
3762.000000	78.811000
3760.000000	78.775673
3758.000000	78.822441
3756.000000	78.769449
3754.000000	78.354172
3752.000000	77.896303
3750.000000	77.920720
3748.000000	78.122766
3746.000000	77.975174
3744.000000	78.106336
3742.000000	78.801955
3740.000000	79.181865
3738.000000	79.016608
3736.000000	78.850910
3734.000000	78.942432
3732.000000	79.227103
3730.000000	79.564906
3728.000000	79.725767
3726.000000	79.761789
3724.000000	79.830763
3722.000000	79.936119
3720.000000	80.066492
3718.000000	80.182723
3716.000000	80.153447
3714.000000	79.899252
3712.000000	79.729484
3710.000000	79.923408
3708.000000	80.278556
3706.000000	80.501248
3704.000000	80.518573
3702.000000	80.510346
3700.000000	80.630514
3698.000000	80.770466
3696.000000	80.823329
3694.000000	80.741999
3692.000000	80.451219
3690.000000	80.111857
3688.000000	80.206655
3686.000000	80.713886
3684.000000	81.066996
3682.000000	81.115809
3680.000000	80.951448
3678.000000	80.529333
3676.000000	80.219989
3674.000000	80.351551
3672.000000	80.457875
3670.000000	80.562830
3668.000000	80.983305
3666.000000	81.380579
3664.000000	81.537188
3662.000000	81.570083
3660.000000	81.504758
3658.000000	81.323499
3656.000000	81.257990
3654.000000	81.280658
3652.000000	81.006102
3650.000000	80.679685
3648.000000	80.833005
3646.000000	81.306504
3644.000000	81.644871
3642.000000	81.763450
3640.000000	81.798204
3638.000000	81.807271
3636.000000	81.780807
3634.000000	81.695753
3632.000000	81.401067
3630.000000	81.017764
3628.000000	81.112047
3626.000000	81.575788
3624.000000	81.808318
3622.000000	81.688574
3620.000000	81.505033
3618.000000	81.535695
3616.000000	81.646397
3614.000000	81.638497
3612.000000	81.570126
3610.000000	81.522091
3608.000000	81.604794
3606.000000	81.796197
3604.000000	81.904550
3602.000000	81.897854
3600.000000	81.871189
3598.000000	81.846176
3596.000000	81.816612
3594.000000	81.825972
3592.000000	81.812394
3590.000000	81.668843
3588.000000	81.551850
3586.000000	81.648914
3584.000000	81.821969
3582.000000	81.900469
3580.000000	81.906096
3578.000000	81.900533
3576.000000	81.897272
3574.000000	81.894158
3572.000000	81.850587
3570.000000	81.700833
3568.000000	81.548176
3566.000000	81.578347
3564.000000	81.714946
3562.000000	81.794470
3560.000000	81.819506
3558.000000	81.832303
3556.000000	81.820030
3554.000000	81.781460
3552.000000	81.759433
3550.000000	81.746123
3548.000000	81.693963
3546.000000	81.653990
3544.000000	81.680339
3542.000000	81.724498
3540.000000	81.731598
3538.000000	81.705837
3536.000000	81.682961
3534.000000	81.671597
3532.000000	81.639449
3530.000000	81.580433
3528.000000	81.522899
3526.000000	81.478467
3524.000000	81.443904
3522.000000	81.427229
3520.000000	81.413184
3518.000000	81.387364
3516.000000	81.354919
3514.000000	81.311725
3512.000000	81.255292
3510.000000	81.201049
3508.000000	81.160714
3506.000000	81.104516
3504.000000	81.026854
3502.000000	80.974009
3500.000000	80.942603
3498.000000	80.895890
3496.000000	80.839863
3494.000000	80.790075
3492.000000	80.738542
3490.000000	80.678630
3488.000000	80.621146
3486.000000	80.577360
3484.000000	80.535510
3482.000000	80.497854
3480.000000	80.482076
3478.000000	80.480397
3476.000000	80.478844
3474.000000	80.481264
3472.000000	80.489619
3470.000000	80.497178
3468.000000	80.509584
3466.000000	80.538419
3464.000000	80.575801
3462.000000	80.613970
3460.000000	80.654909
3458.000000	80.692671
3456.000000	80.724438
3454.000000	80.750481
3452.000000	80.769286
3450.000000	80.775642
3448.000000	80.777214
3446.000000	80.804198
3444.000000	80.853024
3442.000000	80.910784
3440.000000	80.984137
3438.000000	81.070025
3436.000000	81.171057
3434.000000	81.294296
3432.000000	81.433612
3430.000000	81.576197
3428.000000	81.719392
3426.000000	81.856330
3424.000000	81.975852
3422.000000	82.082277
3420.000000	82.192213
3418.000000	82.305665
3416.000000	82.404757
3414.000000	82.485872
3412.000000	82.558721
3410.000000	82.625279
3408.000000	82.687406
3406.000000	82.744303
3404.000000	82.793162
3402.000000	82.840728
3400.000000	82.897527
3398.000000	82.970787
3396.000000	83.050284
3394.000000	83.120399
3392.000000	83.189172
3390.000000	83.267806
3388.000000	83.341914
3386.000000	83.403453
3384.000000	83.461953
3382.000000	83.521077
3380.000000	83.577167
3378.000000	83.628872
3376.000000	83.677945
3374.000000	83.724610
3372.000000	83.762995
3370.000000	83.794021
3368.000000	83.833597
3366.000000	83.885583
3364.000000	83.937714
3362.000000	83.984505
3360.000000	84.028044
3358.000000	84.069274
3356.000000	84.110447
3354.000000	84.151734
3352.000000	84.190797
3350.000000	84.231282
3348.000000	84.274777
3346.000000	84.317199
3344.000000	84.359351
3342.000000	84.401089
3340.000000	84.437160
3338.000000	84.472304
3336.000000	84.514944
3334.000000	84.559721
3332.000000	84.599700
3330.000000	84.636781
3328.000000	84.671190
3326.000000	84.704586
3324.000000	84.742285
3322.000000	84.781901
3320.000000	84.819576
3318.000000	84.854087
3316.000000	84.886772
3314.000000	84.919440
3312.000000	84.951559
3310.000000	84.979154
3308.000000	85.005066
3306.000000	85.036122
3304.000000	85.076869
3302.000000	85.122730
3300.000000	85.162263
3298.000000	85.197580
3296.000000	85.231931
3294.000000	85.260805
3292.000000	85.292250
3290.000000	85.335244
3288.000000	85.380723
3286.000000	85.420809
3284.000000	85.457488
3282.000000	85.493584
3280.000000	85.528967
3278.000000	85.564281
3276.000000	85.598940
3274.000000	85.634492
3272.000000	85.673115
3270.000000	85.716261
3268.000000	85.762860
3266.000000	85.809410
3264.000000	85.855056
3262.000000	85.897935
3260.000000	85.940927
3258.000000	85.983478
3256.000000	86.024604
3254.000000	86.070004
3252.000000	86.121039
3250.000000	86.170026
3248.000000	86.213229
3246.000000	86.255247
3244.000000	86.305001
3242.000000	86.359062
3240.000000	86.411410
3238.000000	86.459991
3236.000000	86.504417
3234.000000	86.547759
3232.000000	86.598832
3230.000000	86.655435
3228.000000	86.707428
3226.000000	86.758230
3224.000000	86.808761
3222.000000	86.854923
3220.000000	86.900540
3218.000000	86.949699
3216.000000	86.999388
3214.000000	87.046677
3212.000000	87.096455
3210.000000	87.150430
3208.000000	87.211189
3206.000000	87.275492
3204.000000	87.340495
3202.000000	87.407847
3200.000000	87.475560
3198.000000	87.546516
3196.000000	87.622308
3194.000000	87.698408
3192.000000	87.773169
3190.000000	87.844883
3188.000000	87.914295
3186.000000	87.984374
3184.000000	88.056554
3182.000000	88.126470
3180.000000	88.192891
3178.000000	88.261658
3176.000000	88.338217
3174.000000	88.414663
3172.000000	88.486249
3170.000000	88.558551
3168.000000	88.634309
3166.000000	88.710956
3164.000000	88.786193
3162.000000	88.861028
3160.000000	88.938814
3158.000000	89.019137
3156.000000	89.095932
3154.000000	89.167184
3152.000000	89.241720
3150.000000	89.326404
3148.000000	89.410269
3146.000000	89.487791
3144.000000	89.562699
3142.000000	89.634190
3140.000000	89.704275
3138.000000	89.775661
3136.000000	89.845753
3134.000000	89.911241
3132.000000	89.979362
3130.000000	90.048911
3128.000000	90.113069
3126.000000	90.173664
3124.000000	90.232221
3122.000000	90.284656
3120.000000	90.335322
3118.000000	90.387117
3116.000000	90.442267
3114.000000	90.503424
3112.000000	90.561928
3110.000000	90.612544
3108.000000	90.667013
3106.000000	90.726469
3104.000000	90.782838
3102.000000	90.839314
3100.000000	90.903946
3098.000000	90.971663
3096.000000	91.037407
3094.000000	91.102654
3092.000000	91.166189
3090.000000	91.226496
3088.000000	91.282936
3086.000000	91.333545
3084.000000	91.383133
3082.000000	91.430431
3080.000000	91.469327
3078.000000	91.505101
3076.000000	91.543718
3074.000000	91.576877
3072.000000	91.596927
3070.000000	91.603281
3068.000000	91.607284
3066.000000	91.624616
3064.000000	91.660986
3062.000000	91.709627
3060.000000	91.763440
3058.000000	91.819796
3056.000000	91.882460
3054.000000	91.946051
3052.000000	92.003092
3050.000000	92.052849
3048.000000	92.099684
3046.000000	92.142127
3044.000000	92.173552
3042.000000	92.198740
3040.000000	92.225443
3038.000000	92.245871
3036.000000	92.254704
3034.000000	92.254603
3032.000000	92.244211
3030.000000	92.211869
3028.000000	92.143400
3026.000000	92.033980
3024.000000	91.905078
3022.000000	91.789715
3020.000000	91.726304
3018.000000	91.753304
3016.000000	91.892731
3014.000000	92.128178
3012.000000	92.415470
3010.000000	92.695508
3008.000000	92.922030
3006.000000	93.083156
3004.000000	93.195423
3002.000000	93.276718
3000.000000	93.334882
2998.000000	93.376045
2996.000000	93.406055
2994.000000	93.427143
2992.000000	93.439528
2990.000000	93.439754
2988.000000	93.424765
2986.000000	93.389364
2984.000000	93.329052
2982.000000	93.240874
2980.000000	93.119976
2978.000000	92.953114
2976.000000	92.724974
2974.000000	92.419496
2972.000000	92.023720
2970.000000	91.538749
2968.000000	91.008759
2966.000000	90.518160
2964.000000	90.156574
2962.000000	89.982291
2960.000000	89.997670
2958.000000	90.141092
2956.000000	90.334763
2954.000000	90.520264
2952.000000	90.665036
2950.000000	90.736426
2948.000000	90.703089
2946.000000	90.541615
2944.000000	90.246994
2942.000000	89.832271
2940.000000	89.334541
2938.000000	88.816541
2936.000000	88.341018
2934.000000	87.919458
2932.000000	87.518807
2930.000000	87.125881
2928.000000	86.793841
2926.000000	86.627681
2924.000000	86.734339
2922.000000	87.155857
2920.000000	87.837552
2918.000000	88.661546
2916.000000	89.519052
2914.000000	90.326451
2912.000000	91.021670
2910.000000	91.574767
2908.000000	92.007751
2906.000000	92.360359
2904.000000	92.663714
2902.000000	92.938611
2900.000000	93.196851
2898.000000	93.438013
2896.000000	93.664791
2894.000000	93.881194
2892.000000	94.085691
2890.000000	94.271401
2888.000000	94.434452
2886.000000	94.565759
2884.000000	94.655254
2882.000000	94.699854
2880.000000	94.698102
2878.000000	94.644704
2876.000000	94.533106
2874.000000	94.354238
2872.000000	94.098929
2870.000000	93.737922
2868.000000	93.248629
2866.000000	92.669605
2864.000000	92.123212
2862.000000	91.764723
2860.000000	91.687165
2858.000000	91.854037
2856.000000	92.154529
2854.000000	92.513063
2852.000000	92.929208
2850.000000	93.440368
2848.000000	94.049529
2846.000000	94.673452
2844.000000	95.218456
2842.000000	95.652230
2840.000000	95.991829
2838.000000	96.264544
2836.000000	96.489069
2834.000000	96.672628
2832.000000	96.827652
2830.000000	96.961541
2828.000000	97.081718
2826.000000	97.192984
2824.000000	97.297346
2822.000000	97.392382
2820.000000	97.478994
2818.000000	97.558289
2816.000000	97.630266
2814.000000	97.694810
2812.000000	97.754427
2810.000000	97.805226
2808.000000	97.852562
2806.000000	97.899849
2804.000000	97.945951
2802.000000	97.989457
2800.000000	98.032374
2798.000000	98.074446
2796.000000	98.117039
2794.000000	98.159984
2792.000000	98.206632
2790.000000	98.261774
2788.000000	98.331598
2786.000000	98.411938
2784.000000	98.496980
2782.000000	98.577261
2780.000000	98.651215
2778.000000	98.719832
2776.000000	98.782841
2774.000000	98.841255
2772.000000	98.897492
2770.000000	98.947781
2768.000000	98.995491
2766.000000	99.045049
2764.000000	99.094430
2762.000000	99.140178
2760.000000	99.183668
2758.000000	99.227001
2756.000000	99.270918
2754.000000	99.310276
2752.000000	99.350085
2750.000000	99.389009
2748.000000	99.425648
2746.000000	99.461465
2744.000000	99.498108
2742.000000	99.533459
2740.000000	99.567774
2738.000000	99.600934
2736.000000	99.634167
2734.000000	99.667587
2732.000000	99.701126
2730.000000	99.733696
2728.000000	99.767544
2726.000000	99.800097
2724.000000	99.832318
2722.000000	99.864004
2720.000000	99.896585
2718.000000	99.927587
2716.000000	99.955928
2714.000000	99.981616
2712.000000	100.007464
2710.000000	100.029833
2708.000000	100.052223
2706.000000	100.078355
2704.000000	100.109542
2702.000000	100.145003
2700.000000	100.187152
2698.000000	100.233800
2696.000000	100.282719
2694.000000	100.327703
2692.000000	100.371112
2690.000000	100.412440
2688.000000	100.453344
2686.000000	100.492326
2684.000000	100.530661
2682.000000	100.567096
2680.000000	100.602045
2678.000000	100.636101
2676.000000	100.670788
2674.000000	100.702050
2672.000000	100.729994
2670.000000	100.756993
2668.000000	100.787042
2666.000000	100.815106
2664.000000	100.843941
2662.000000	100.873229
2660.000000	100.902391
2658.000000	100.932210
2656.000000	100.964495
2654.000000	100.999586
2652.000000	101.038365
2650.000000	101.078083
2648.000000	101.118123
2646.000000	101.156321
2644.000000	101.194867
2642.000000	101.231619
2640.000000	101.266402
2638.000000	101.300031
2636.000000	101.334029
2634.000000	101.365683
2632.000000	101.396437
2630.000000	101.426239
2628.000000	101.455001
2626.000000	101.482466
2624.000000	101.511300
2622.000000	101.538503
2620.000000	101.564788
2618.000000	101.590660
2616.000000	101.617078
2614.000000	101.640512
2612.000000	101.663541
2610.000000	101.685249
2608.000000	101.706326
2606.000000	101.724192
2604.000000	101.738377
2602.000000	101.750335
2600.000000	101.761565
2598.000000	101.769090
2596.000000	101.779620
2594.000000	101.793511
2592.000000	101.814406
2590.000000	101.843740
2588.000000	101.885887
2586.000000	101.938048
2584.000000	101.997568
2582.000000	102.059573
2580.000000	102.122028
2578.000000	102.180905
2576.000000	102.233595
2574.000000	102.278625
2572.000000	102.321076
2570.000000	102.360561
2568.000000	102.396951
2566.000000	102.430489
2564.000000	102.463810
2562.000000	102.495356
2560.000000	102.524721
2558.000000	102.551176
2556.000000	102.577328
2554.000000	102.602593
2552.000000	102.628789
2550.000000	102.652465
2548.000000	102.676463
2546.000000	102.702134
2544.000000	102.728950
2542.000000	102.754108
2540.000000	102.780998
2538.000000	102.806947
2536.000000	102.833238
2534.000000	102.860503
2532.000000	102.886442
2530.000000	102.910058
2528.000000	102.934372
2526.000000	102.958904
2524.000000	102.986334
2522.000000	103.011139
2520.000000	103.032982
2518.000000	103.053349
2516.000000	103.077939
2514.000000	103.102633
2512.000000	103.125980
2510.000000	103.146065
2508.000000	103.165220
2506.000000	103.183669
2504.000000	103.204344
2502.000000	103.225065
2500.000000	103.248084
2498.000000	103.272869
2496.000000	103.300057
2494.000000	103.325631
2492.000000	103.352081
2490.000000	103.378060
2488.000000	103.403774
2486.000000	103.427069
2484.000000	103.453337
2482.000000	103.479999
2480.000000	103.504926
2478.000000	103.526422
2476.000000	103.549506
2474.000000	103.571915
2472.000000	103.590993
2470.000000	103.606153
2468.000000	103.624025
2466.000000	103.642452
2464.000000	103.659341
2462.000000	103.671562
2460.000000	103.686044
2458.000000	103.702727
2456.000000	103.719731
2454.000000	103.736347
2452.000000	103.754446
2450.000000	103.769233
2448.000000	103.783698
2446.000000	103.798864
2444.000000	103.816945
2442.000000	103.832021
2440.000000	103.844202
2438.000000	103.855056
2436.000000	103.869504
2434.000000	103.883291
2432.000000	103.897041
2430.000000	103.909195
2428.000000	103.920712
2426.000000	103.932711
2424.000000	103.947546
2422.000000	103.961515
2420.000000	103.976415
2418.000000	103.988069
2416.000000	103.997722
2414.000000	104.009436
2412.000000	104.022154
2410.000000	104.031451
2408.000000	104.043807
2406.000000	104.057663
2404.000000	104.073497
2402.000000	104.087751
2400.000000	104.104487
2398.000000	104.121483
2396.000000	104.137802
2394.000000	104.153762
2392.000000	104.171461
2390.000000	104.187009
2388.000000	104.199904
2386.000000	104.203179
2384.000000	104.193246
2382.000000	104.158955
2380.000000	104.093191
2378.000000	103.986685
2376.000000	103.833861
2374.000000	103.632868
2372.000000	103.402848
2370.000000	103.159390
2368.000000	102.925226
2366.000000	102.728262
2364.000000	102.596997
2362.000000	102.551123
2360.000000	102.603887
2358.000000	102.754975
2356.000000	102.998496
2354.000000	103.312646
2352.000000	103.663278
2350.000000	103.919423
2348.000000	103.905123
2346.000000	103.675054
2344.000000	103.433654
2342.000000	103.259261
2340.000000	103.157294
2338.000000	103.111426
2336.000000	103.108925
2334.000000	103.140965
2332.000000	103.200346
2330.000000	103.285133
2328.000000	103.392507
2326.000000	103.510044
2324.000000	103.632081
2322.000000	103.749792
2320.000000	103.864099
2318.000000	103.968975
2316.000000	104.065084
2314.000000	104.146042
2312.000000	104.215980
2310.000000	104.276682
2308.000000	104.327059
2306.000000	104.366973
2304.000000	104.401997
2302.000000	104.429266
2300.000000	104.453527
2298.000000	104.473264
2296.000000	104.489021
2294.000000	104.501920
2292.000000	104.516940
2290.000000	104.529382
2288.000000	104.542261
2286.000000	104.549533
2284.000000	104.553716
2282.000000	104.553894
2280.000000	104.552934
2278.000000	104.547907
2276.000000	104.541729
2274.000000	104.534560
2272.000000	104.528631
2270.000000	104.521728
2268.000000	104.518225
2266.000000	104.513812
2264.000000	104.510538
2262.000000	104.506298
2260.000000	104.502679
2258.000000	104.498666
2256.000000	104.499576
2254.000000	104.501181
2252.000000	104.504963
2250.000000	104.509252
2248.000000	104.517585
2246.000000	104.526306
2244.000000	104.535846
2242.000000	104.545630
2240.000000	104.559695
2238.000000	104.573277
2236.000000	104.586163
2234.000000	104.597586
2232.000000	104.611731
2230.000000	104.625624
2228.000000	104.639622
2226.000000	104.647690
2224.000000	104.657771
2222.000000	104.666586
2220.000000	104.675307
2218.000000	104.681035
2216.000000	104.687157
2214.000000	104.691576
2212.000000	104.695617
2210.000000	104.697910
2208.000000	104.703731
2206.000000	104.708663
2204.000000	104.715229
2202.000000	104.718930
2200.000000	104.721399
2198.000000	104.721263
2196.000000	104.724294
2194.000000	104.725517
2192.000000	104.728642
2190.000000	104.730024
2188.000000	104.730382
2186.000000	104.727692
2184.000000	104.726241
2182.000000	104.725076
2180.000000	104.726239
2178.000000	104.724493
2176.000000	104.722409
2174.000000	104.708702
2172.000000	104.681927
2170.000000	104.655811
2168.000000	104.670416
2166.000000	104.696088
2164.000000	104.702291
2162.000000	104.697429
2160.000000	104.694810
2158.000000	104.694593
2156.000000	104.698246
2154.000000	104.697473
2152.000000	104.694909
2150.000000	104.690485
2148.000000	104.689840
2146.000000	104.687373
2144.000000	104.686593
2142.000000	104.683887
2140.000000	104.683991
2138.000000	104.681800
2136.000000	104.679029
2134.000000	104.673379
2132.000000	104.670486
2130.000000	104.668438
2128.000000	104.668575
2126.000000	104.668783
2124.000000	104.667975
2122.000000	104.667866
2120.000000	104.672207
2118.000000	104.675392
2116.000000	104.678730
2114.000000	104.684169
2112.000000	104.693166
2110.000000	104.701771
2108.000000	104.713295
2106.000000	104.725851
2104.000000	104.738097
2102.000000	104.744829
2100.000000	104.756462
2098.000000	104.769954
2096.000000	104.783581
2094.000000	104.794147
2092.000000	104.806156
2090.000000	104.814855
2088.000000	104.833704
2086.000000	104.850252
2084.000000	104.866614
2082.000000	104.879215
2080.000000	104.895232
2078.000000	104.910317
2076.000000	104.929808
2074.000000	104.945164
2072.000000	104.962420
2070.000000	104.978010
2068.000000	104.993554
2066.000000	105.004031
2064.000000	105.028184
2062.000000	105.055520
2060.000000	105.076906
2058.000000	105.096574
2056.000000	105.120232
2054.000000	105.139483
2052.000000	105.159578
2050.000000	105.180082
2048.000000	105.201834
2046.000000	105.217060
2044.000000	105.231547
2042.000000	105.238808
2040.000000	105.257601
2038.000000	105.279824
2036.000000	105.295953
2034.000000	105.302452
2032.000000	105.300629
2030.000000	105.280270
2028.000000	105.288037
2026.000000	105.325642
2024.000000	105.350638
2022.000000	105.355797
2020.000000	105.350185
2018.000000	105.342357
2016.000000	105.369032
2014.000000	105.408971
2012.000000	105.434052
2010.000000	105.446884
2008.000000	105.459811
2006.000000	105.470219
2004.000000	105.483276
2002.000000	105.491208
2000.000000	105.496472
1998.000000	105.498555
1996.000000	105.496942
1994.000000	105.460086
1992.000000	105.428249
1990.000000	105.453916
1988.000000	105.481052
1986.000000	105.488386
1984.000000	105.485113
1982.000000	105.471562
1980.000000	105.461822
1978.000000	105.451373
1976.000000	105.436630
1974.000000	105.415843
1972.000000	105.397482
1970.000000	105.360274
1968.000000	105.301960
1966.000000	105.280561
1964.000000	105.285728
1962.000000	105.229955
1960.000000	105.105649
1958.000000	105.075441
1956.000000	105.157805
1954.000000	105.184542
1952.000000	105.166577
1950.000000	105.136373
1948.000000	105.111968
1946.000000	105.064500
1944.000000	104.976905
1942.000000	104.937399
1940.000000	104.994174
1938.000000	105.009696
1936.000000	104.990232
1934.000000	104.959222
1932.000000	104.933047
1930.000000	104.903813
1928.000000	104.877580
1926.000000	104.822494
1924.000000	104.731830
1922.000000	104.675877
1920.000000	104.582412
1918.000000	104.463486
1916.000000	104.540731
1914.000000	104.591017
1912.000000	104.530490
1910.000000	104.443664
1908.000000	104.405596
1906.000000	104.377168
1904.000000	104.333806
1902.000000	104.277966
1900.000000	104.232158
1898.000000	104.169705
1896.000000	104.102903
1894.000000	104.065748
1892.000000	104.012589
1890.000000	103.913432
1888.000000	103.942931
1886.000000	103.991218
1884.000000	103.988944
1882.000000	103.972523
1880.000000	103.953789
1878.000000	103.924404
1876.000000	103.903128
1874.000000	103.866741
1872.000000	103.738776
1870.000000	103.480377
1868.000000	103.442950
1866.000000	103.613207
1864.000000	103.699708
1862.000000	103.680361
1860.000000	103.646728
1858.000000	103.612992
1856.000000	103.588293
1854.000000	103.548760
1852.000000	103.511895
1850.000000	103.440730
1848.000000	103.302030
1846.000000	102.933208
1844.000000	102.703182
1842.000000	102.997519
1840.000000	103.194532
1838.000000	103.145181
1836.000000	103.094035
1834.000000	103.020621
1832.000000	102.785708
1830.000000	102.549161
1828.000000	102.584270
1826.000000	102.543905
1824.000000	102.544979
1822.000000	102.630309
1820.000000	102.604821
1818.000000	102.518737
1816.000000	102.454334
1814.000000	102.360487
1812.000000	102.201069
1810.000000	102.095363
1808.000000	102.074396
1806.000000	102.005930
1804.000000	101.840265
1802.000000	101.593237
1800.000000	101.460131
1798.000000	101.449253
1796.000000	101.321691
1794.000000	100.857961
1792.000000	100.590616
1790.000000	100.837542
1788.000000	100.963316
1786.000000	100.772186
1784.000000	100.633324
1782.000000	100.536204
1780.000000	100.432162
1778.000000	100.373501
1776.000000	100.117633
1774.000000	99.465807
1772.000000	99.132745
1770.000000	99.413246
1768.000000	99.568260
1766.000000	99.717975
1764.000000	99.574466
1762.000000	99.259918
1760.000000	99.267264
1758.000000	99.181549
1756.000000	99.046344
1754.000000	98.847487
1752.000000	98.264430
1750.000000	98.046646
1748.000000	98.179579
1746.000000	98.200247
1744.000000	98.053860
1742.000000	97.746255
1740.000000	97.446545
1738.000000	97.397968
1736.000000	96.694586
1734.000000	95.974214
1732.000000	96.625176
1730.000000	97.249071
1728.000000	97.393034
1726.000000	97.375868
1724.000000	97.286162
1722.000000	97.137245
1720.000000	96.461189
1718.000000	95.522377
1716.000000	95.679724
1714.000000	96.344981
1712.000000	96.661941
1710.000000	96.596984
1708.000000	96.314716
1706.000000	95.977303
1704.000000	95.789574
1702.000000	94.914802
1700.000000	94.259339
1698.000000	94.480940
1696.000000	94.398257
1694.000000	95.198698
1692.000000	95.906692
1690.000000	95.853300
1688.000000	95.475772
1686.000000	94.280866
1684.000000	93.822798
1682.000000	94.866660
1680.000000	95.459843
1678.000000	95.312836
1676.000000	94.794847
1674.000000	94.771536
1672.000000	94.796800
1670.000000	94.463549
1668.000000	94.631273
1666.000000	94.887384
1664.000000	94.612473
1662.000000	94.462802
1660.000000	94.632401
1658.000000	94.538290
1656.000000	93.538523
1654.000000	91.682133
1652.000000	91.783761
1650.000000	93.207217
1648.000000	93.099758
1646.000000	92.809090
1644.000000	93.319609
1642.000000	93.607397
1640.000000	93.393425
1638.000000	92.688025
1636.000000	91.862758
1634.000000	92.169836
1632.000000	92.702654
1630.000000	92.531802
1628.000000	92.153758
1626.000000	91.760158
1624.000000	91.186941
1622.000000	90.835978
1620.000000	90.441875
1618.000000	89.420380
1616.000000	88.925437
1614.000000	89.113383
1612.000000	88.716618
1610.000000	88.090758
1608.000000	87.769716
1606.000000	87.806693
1604.000000	88.002748
1602.000000	88.246667
1600.000000	88.487562
1598.000000	88.696692
1596.000000	88.843063
1594.000000	88.957543
1592.000000	89.027066
1590.000000	89.033556
1588.000000	88.996432
1586.000000	88.929402
1584.000000	88.854665
1582.000000	88.802114
1580.000000	88.657003
1578.000000	87.933861
1576.000000	87.417467
1574.000000	88.065073
1572.000000	88.260339
1570.000000	87.861095
1568.000000	87.882792
1566.000000	87.911007
1564.000000	87.612956
1562.000000	86.581342
1560.000000	84.929142
1558.000000	84.926127
1556.000000	86.083803
1554.000000	86.749321
1552.000000	87.272652
1550.000000	87.584446
1548.000000	87.763056
1546.000000	87.664721
1544.000000	87.343502
1542.000000	86.735957
1540.000000	86.410518
1538.000000	87.481076
1536.000000	88.548113
1534.000000	88.595585
1532.000000	88.871605
1530.000000	89.150124
1528.000000	88.998941
1526.000000	88.745565
1524.000000	88.418668
1522.000000	87.811095
1520.000000	87.890667
1518.000000	88.171114
1516.000000	88.119766
1514.000000	88.074645
1512.000000	87.876941
1510.000000	87.380062
1508.000000	86.136276
1506.000000	85.439157
1504.000000	85.756420
1502.000000	84.994319
1500.000000	82.528329
1498.000000	79.205852
1496.000000	76.685123
1494.000000	76.325787
1492.000000	77.418788
1490.000000	79.153322
1488.000000	81.107156
1486.000000	82.722624
1484.000000	83.782540
1482.000000	84.297798
1480.000000	84.535553
1478.000000	84.454022
1476.000000	84.093724
1474.000000	83.544511
1472.000000	83.354381
1470.000000	83.631360
1468.000000	83.498648
1466.000000	82.893465
1464.000000	82.502649
1462.000000	82.252698
1460.000000	81.282159
1458.000000	79.571911
1456.000000	78.552465
1454.000000	78.298468
1452.000000	77.859123
1450.000000	77.928654
1448.000000	78.751639
1446.000000	79.743599
1444.000000	80.247291
1442.000000	80.367877
1440.000000	80.256065
1438.000000	79.828680
1436.000000	79.784252
1434.000000	80.282073
1432.000000	80.389735
1430.000000	80.319339
1428.000000	80.357034
1426.000000	80.363977
1424.000000	80.252057
1422.000000	80.001858
1420.000000	79.444296
1418.000000	79.390752
1416.000000	79.616346
1414.000000	79.519036
1412.000000	79.168186
1410.000000	78.642264
1408.000000	77.885230
1406.000000	77.051992
1404.000000	76.583457
1402.000000	76.604577
1400.000000	76.809470
1398.000000	77.231319
1396.000000	77.602356
1394.000000	77.927222
1392.000000	78.286722
1390.000000	78.293671
1388.000000	77.954084
1386.000000	77.684542
1384.000000	77.614100
1382.000000	77.727041
1380.000000	77.824967
1378.000000	77.766646
1376.000000	77.596261
1374.000000	77.452571
1372.000000	77.431838
1370.000000	77.344624
1368.000000	77.186124
1366.000000	77.023479
1364.000000	76.777449
1362.000000	76.587500
1360.000000	76.509208
1358.000000	76.389892
1356.000000	76.194687
1354.000000	75.989658
1352.000000	75.786429
1350.000000	75.570742
1348.000000	75.350362
1346.000000	75.124260
1344.000000	74.879469
1342.000000	74.597499
1340.000000	74.325433
1338.000000	74.185368
1336.000000	74.122695
1334.000000	74.036225
1332.000000	73.886701
1330.000000	73.694297
1328.000000	73.472314
1326.000000	73.230132
1324.000000	72.965840
1322.000000	72.682230
1320.000000	72.370582
1318.000000	72.068129
1316.000000	71.774319
1314.000000	71.465088
1312.000000	71.151294
1310.000000	70.838904
1308.000000	70.512308
1306.000000	70.182995
1304.000000	69.843389
1302.000000	69.500424
1300.000000	69.154545
1298.000000	68.807526
1296.000000	68.451041
1294.000000	68.087836
1292.000000	67.703657
1290.000000	67.306804
1288.000000	66.902272
1286.000000	66.499884
1284.000000	66.084100
1282.000000	65.653884
1280.000000	65.198318
1278.000000	64.712570
1276.000000	64.175799
1274.000000	63.561569
1272.000000	62.829315
1270.000000	61.938455
1268.000000	60.829230
1266.000000	59.505327
1264.000000	58.130668
1262.000000	57.030171
1260.000000	56.479182
1258.000000	56.486990
1256.000000	56.782470
1254.000000	57.032061
1252.000000	57.029994
1250.000000	56.786171
1248.000000	56.391974
1246.000000	55.924128
1244.000000	55.418647
1242.000000	54.904153
1240.000000	54.393566
1238.000000	53.899773
1236.000000	53.421958
1234.000000	52.960096
1232.000000	52.506652
1230.000000	52.060712
1228.000000	51.614290
1226.000000	51.163651
1224.000000	50.702373
1222.000000	50.230889
1220.000000	49.737934
1218.000000	49.228649
1216.000000	48.708987
1214.000000	48.193624
1212.000000	47.699030
1210.000000	47.242778
1208.000000	46.825628
1206.000000	46.431267
1204.000000	46.032985
1202.000000	45.633318
1200.000000	45.240430
1198.000000	44.854676
1196.000000	44.460688
1194.000000	44.054004
1192.000000	43.635426
1190.000000	43.207875
1188.000000	42.764773
1186.000000	42.293272
1184.000000	41.711163
1182.000000	40.984499
1180.000000	40.418341
1178.000000	40.170539
1176.000000	39.936306
1174.000000	39.579696
1172.000000	39.155955
1170.000000	38.710802
1168.000000	38.244969
1166.000000	37.766285
1164.000000	37.293481
1162.000000	36.833442
1160.000000	36.375846
1158.000000	35.938882
1156.000000	35.516869
1154.000000	35.098243
1152.000000	34.671014
1150.000000	34.249612
1148.000000	33.820005
1146.000000	33.380668
1144.000000	32.951634
1142.000000	32.574965
1140.000000	32.262019
1138.000000	31.945753
1136.000000	31.584442
1134.000000	31.191767
1132.000000	30.774789
1130.000000	30.348938
1128.000000	29.925760
1126.000000	29.506330
1124.000000	29.074315
1122.000000	28.631995
1120.000000	28.182463
1118.000000	27.727889
1116.000000	27.263490
1114.000000	26.792484
1112.000000	26.320057
1110.000000	25.856346
1108.000000	25.402562
1106.000000	24.967258
1104.000000	24.551166
1102.000000	24.142087
1100.000000	23.727762
1098.000000	23.319235
1096.000000	22.922195
1094.000000	22.540656
1092.000000	22.172575
1090.000000	21.820906
1088.000000	21.477798
1086.000000	21.137813
1084.000000	20.789655
1082.000000	20.434403
1080.000000	20.096396
1078.000000	19.790487
1076.000000	19.514509
1074.000000	19.283516
1072.000000	19.068253
1070.000000	18.843079
1068.000000	18.611140
1066.000000	18.382687
1064.000000	18.150130
1062.000000	17.913309
1060.000000	17.666310
1058.000000	17.380614
1056.000000	16.990421
1054.000000	16.478874
1052.000000	15.975378
1050.000000	15.674477
1048.000000	15.634683
1046.000000	15.715624
1044.000000	15.716798
1042.000000	15.601648
1040.000000	15.419779
1038.000000	15.207101
1036.000000	14.973411
1034.000000	14.732114
1032.000000	14.484647
1030.000000	14.229542
1028.000000	13.964744
1026.000000	13.694648
1024.000000	13.422081
1022.000000	13.155915
1020.000000	12.902938
1018.000000	12.670252
1016.000000	12.456310
1014.000000	12.267570
1012.000000	12.097614
1010.000000	11.934967
1008.000000	11.766419
1006.000000	11.589718
1004.000000	11.396872
1002.000000	11.187974
1000.000000	10.960977
