PE IR       SUBTECH     SPECTRUM    ASCII       PEDS        4.00        
   -1
TE109A_051_120K_BG.ASC
20/04/21
16:45:15.00
20/04/21
16:45:15.00
Administrator
TE109A, Tuesday, April 21 2020, 051.
1000.000000
#HDR
-1
-1
#GR
cm-1
EGY
1.0
0.0
6000.000000
-2.000000
2501
8
105.162146
10.915174
#DATA
6000.000000	16.076701
5998.000000	16.107400
5996.000000	16.137723
5994.000000	16.170058
5992.000000	16.204702
5990.000000	16.238604
5988.000000	16.272198
5986.000000	16.304951
5984.000000	16.336444
5982.000000	16.367787
5980.000000	16.398988
5978.000000	16.431446
5976.000000	16.464513
5974.000000	16.497587
5972.000000	16.530182
5970.000000	16.563194
5968.000000	16.597731
5966.000000	16.632284
5964.000000	16.666050
5962.000000	16.698646
5960.000000	16.732369
5958.000000	16.767140
5956.000000	16.799933
5954.000000	16.831835
5952.000000	16.865509
5950.000000	16.901114
5948.000000	16.936554
5946.000000	16.968572
5944.000000	16.999275
5942.000000	17.032411
5940.000000	17.066774
5938.000000	17.101120
5936.000000	17.134278
5934.000000	17.165894
5932.000000	17.198956
5930.000000	17.232860
5928.000000	17.267000
5926.000000	17.301569
5924.000000	17.336302
5922.000000	17.372471
5920.000000	17.408863
5918.000000	17.444825
5916.000000	17.478525
5914.000000	17.512823
5912.000000	17.548757
5910.000000	17.584827
5908.000000	17.621075
5906.000000	17.656087
5904.000000	17.691328
5902.000000	17.727851
5900.000000	17.764421
5898.000000	17.801247
5896.000000	17.837189
5894.000000	17.872212
5892.000000	17.907334
5890.000000	17.943094
5888.000000	17.978914
5886.000000	18.015088
5884.000000	18.050831
5882.000000	18.086782
5880.000000	18.122457
5878.000000	18.159088
5876.000000	18.195094
5874.000000	18.229978
5872.000000	18.264931
5870.000000	18.299921
5868.000000	18.335982
5866.000000	18.372881
5864.000000	18.410521
5862.000000	18.449079
5860.000000	18.487217
5858.000000	18.523484
5856.000000	18.559460
5854.000000	18.596462
5852.000000	18.634878
5850.000000	18.674676
5848.000000	18.713062
5846.000000	18.751681
5844.000000	18.790253
5842.000000	18.830020
5840.000000	18.871325
5838.000000	18.913400
5836.000000	18.954373
5834.000000	18.994981
5832.000000	19.035730
5830.000000	19.077332
5828.000000	19.118137
5826.000000	19.158997
5824.000000	19.201374
5822.000000	19.242895
5820.000000	19.282469
5818.000000	19.320625
5816.000000	19.360258
5814.000000	19.402081
5812.000000	19.443851
5810.000000	19.484715
5808.000000	19.524455
5806.000000	19.562432
5804.000000	19.600069
5802.000000	19.640823
5800.000000	19.681866
5798.000000	19.721878
5796.000000	19.761889
5794.000000	19.803336
5792.000000	19.846373
5790.000000	19.887128
5788.000000	19.927024
5786.000000	19.967167
5784.000000	20.007229
5782.000000	20.047481
5780.000000	20.088945
5778.000000	20.131634
5776.000000	20.173657
5774.000000	20.215417
5772.000000	20.256846
5770.000000	20.298243
5768.000000	20.339647
5766.000000	20.380341
5764.000000	20.422030
5762.000000	20.464556
5760.000000	20.506505
5758.000000	20.547891
5756.000000	20.587779
5754.000000	20.627849
5752.000000	20.669123
5750.000000	20.709983
5748.000000	20.750515
5746.000000	20.791025
5744.000000	20.832936
5742.000000	20.874764
5740.000000	20.915158
5738.000000	20.955072
5736.000000	20.995183
5734.000000	21.034498
5732.000000	21.073235
5730.000000	21.113688
5728.000000	21.155758
5726.000000	21.196818
5724.000000	21.236509
5722.000000	21.276490
5720.000000	21.318207
5718.000000	21.361052
5716.000000	21.404910
5714.000000	21.448152
5712.000000	21.492241
5710.000000	21.535110
5708.000000	21.577312
5706.000000	21.619272
5704.000000	21.662370
5702.000000	21.707779
5700.000000	21.752786
5698.000000	21.795980
5696.000000	21.839316
5694.000000	21.884841
5692.000000	21.930908
5690.000000	21.975517
5688.000000	22.019336
5686.000000	22.065460
5684.000000	22.111117
5682.000000	22.156112
5680.000000	22.200093
5678.000000	22.245607
5676.000000	22.291131
5674.000000	22.336283
5672.000000	22.380886
5670.000000	22.425411
5668.000000	22.469684
5666.000000	22.514384
5664.000000	22.559670
5662.000000	22.605613
5660.000000	22.651561
5658.000000	22.696154
5656.000000	22.739745
5654.000000	22.783331
5652.000000	22.827602
5650.000000	22.873503
5648.000000	22.919513
5646.000000	22.965537
5644.000000	23.011800
5642.000000	23.057872
5640.000000	23.102690
5638.000000	23.145381
5636.000000	23.187349
5634.000000	23.231848
5632.000000	23.278506
5630.000000	23.326133
5628.000000	23.372114
5626.000000	23.416719
5624.000000	23.460910
5622.000000	23.506488
5620.000000	23.551454
5618.000000	23.597037
5616.000000	23.642448
5614.000000	23.687475
5612.000000	23.731686
5610.000000	23.775365
5608.000000	23.820515
5606.000000	23.865461
5604.000000	23.909830
5602.000000	23.954988
5600.000000	24.001674
5598.000000	24.049169
5596.000000	24.095165
5594.000000	24.140610
5592.000000	24.185546
5590.000000	24.231241
5588.000000	24.277594
5586.000000	24.325210
5584.000000	24.372375
5582.000000	24.418999
5580.000000	24.465321
5578.000000	24.512426
5576.000000	24.560105
5574.000000	24.607412
5572.000000	24.653960
5570.000000	24.700256
5568.000000	24.746180
5566.000000	24.792913
5564.000000	24.841144
5562.000000	24.890050
5560.000000	24.937260
5558.000000	24.984315
5556.000000	25.030596
5554.000000	25.077608
5552.000000	25.125136
5550.000000	25.173472
5548.000000	25.221776
5546.000000	25.269069
5544.000000	25.316394
5542.000000	25.363393
5540.000000	25.408740
5538.000000	25.454643
5536.000000	25.501377
5534.000000	25.548490
5532.000000	25.595930
5530.000000	25.643667
5528.000000	25.691972
5526.000000	25.738203
5524.000000	25.783336
5522.000000	25.829030
5520.000000	25.876178
5518.000000	25.923318
5516.000000	25.970222
5514.000000	26.018406
5512.000000	26.066739
5510.000000	26.113313
5508.000000	26.158954
5506.000000	26.206532
5504.000000	26.254172
5502.000000	26.301617
5500.000000	26.349700
5498.000000	26.397074
5496.000000	26.440121
5494.000000	26.482337
5492.000000	26.528927
5490.000000	26.581565
5488.000000	26.635404
5486.000000	26.687614
5484.000000	26.738470
5482.000000	26.787773
5480.000000	26.832075
5478.000000	26.873636
5476.000000	26.918216
5474.000000	26.970502
5472.000000	27.023934
5470.000000	27.074701
5468.000000	27.122108
5466.000000	27.168213
5464.000000	27.213011
5462.000000	27.260355
5460.000000	27.311752
5458.000000	27.366042
5456.000000	27.419714
5454.000000	27.470045
5452.000000	27.515234
5450.000000	27.556545
5448.000000	27.597512
5446.000000	27.643012
5444.000000	27.690463
5442.000000	27.741704
5440.000000	27.793381
5438.000000	27.842280
5436.000000	27.889351
5434.000000	27.936064
5432.000000	27.982618
5430.000000	28.030882
5428.000000	28.083587
5426.000000	28.141831
5424.000000	28.197766
5422.000000	28.250189
5420.000000	28.299626
5418.000000	28.341463
5416.000000	28.375190
5414.000000	28.411453
5412.000000	28.459321
5410.000000	28.518759
5408.000000	28.579699
5406.000000	28.636650
5404.000000	28.689002
5402.000000	28.737841
5400.000000	28.784763
5398.000000	28.826772
5396.000000	28.865599
5394.000000	28.912549
5392.000000	28.970412
5390.000000	29.029234
5388.000000	29.077575
5386.000000	29.123383
5384.000000	29.175728
5382.000000	29.229640
5380.000000	29.274919
5378.000000	29.317268
5376.000000	29.366141
5374.000000	29.426367
5372.000000	29.487889
5370.000000	29.543987
5368.000000	29.592398
5366.000000	29.637197
5364.000000	29.684362
5362.000000	29.737806
5360.000000	29.791999
5358.000000	29.838156
5356.000000	29.876670
5354.000000	29.919851
5352.000000	29.970993
5350.000000	30.023701
5348.000000	30.067648
5346.000000	30.110036
5344.000000	30.158051
5342.000000	30.207358
5340.000000	30.255492
5338.000000	30.308145
5336.000000	30.369187
5334.000000	30.429268
5332.000000	30.480732
5330.000000	30.526692
5328.000000	30.574464
5326.000000	30.628382
5324.000000	30.687145
5322.000000	30.743964
5320.000000	30.796062
5318.000000	30.846202
5316.000000	30.895531
5314.000000	30.944353
5312.000000	30.991263
5310.000000	31.036652
5308.000000	31.084235
5306.000000	31.137052
5304.000000	31.192181
5302.000000	31.245288
5300.000000	31.296097
5298.000000	31.348305
5296.000000	31.399518
5294.000000	31.446319
5292.000000	31.490801
5290.000000	31.541653
5288.000000	31.596917
5286.000000	31.651333
5284.000000	31.702103
5282.000000	31.754949
5280.000000	31.808799
5278.000000	31.861592
5276.000000	31.913619
5274.000000	31.965385
5272.000000	32.015324
5270.000000	32.062750
5268.000000	32.106174
5266.000000	32.148835
5264.000000	32.198349
5262.000000	32.257868
5260.000000	32.318308
5258.000000	32.369835
5256.000000	32.417690
5254.000000	32.469132
5252.000000	32.519687
5250.000000	32.564466
5248.000000	32.609103
5246.000000	32.663665
5244.000000	32.725928
5242.000000	32.786089
5240.000000	32.840839
5238.000000	32.893139
5236.000000	32.944707
5234.000000	32.995045
5232.000000	33.044351
5230.000000	33.092412
5228.000000	33.136834
5226.000000	33.183928
5224.000000	33.239454
5222.000000	33.299888
5220.000000	33.355939
5218.000000	33.408399
5216.000000	33.461642
5214.000000	33.513588
5212.000000	33.559192
5210.000000	33.598999
5208.000000	33.642574
5206.000000	33.697660
5204.000000	33.760533
5202.000000	33.821787
5200.000000	33.874906
5198.000000	33.926451
5196.000000	33.981306
5194.000000	34.039326
5192.000000	34.094164
5190.000000	34.145369
5188.000000	34.195433
5186.000000	34.248187
5184.000000	34.303375
5182.000000	34.359695
5180.000000	34.415496
5178.000000	34.471103
5176.000000	34.526412
5174.000000	34.580346
5172.000000	34.632374
5170.000000	34.685772
5168.000000	34.740724
5166.000000	34.795039
5164.000000	34.846720
5162.000000	34.899385
5160.000000	34.953975
5158.000000	35.008355
5156.000000	35.061682
5154.000000	35.116956
5152.000000	35.174116
5150.000000	35.230322
5148.000000	35.283851
5146.000000	35.336747
5144.000000	35.389622
5142.000000	35.442095
5140.000000	35.494900
5138.000000	35.549783
5136.000000	35.602546
5134.000000	35.654146
5132.000000	35.706991
5130.000000	35.762222
5128.000000	35.817136
5126.000000	35.872088
5124.000000	35.927364
5122.000000	35.980561
5120.000000	36.033167
5118.000000	36.086769
5116.000000	36.140805
5114.000000	36.194521
5112.000000	36.247583
5110.000000	36.302933
5108.000000	36.359968
5106.000000	36.416556
5104.000000	36.470668
5102.000000	36.523930
5100.000000	36.576829
5098.000000	36.630880
5096.000000	36.687041
5094.000000	36.745251
5092.000000	36.801975
5090.000000	36.856713
5088.000000	36.910862
5086.000000	36.967471
5084.000000	37.026363
5082.000000	37.084449
5080.000000	37.139740
5078.000000	37.194584
5076.000000	37.249150
5074.000000	37.304274
5072.000000	37.360331
5070.000000	37.418258
5068.000000	37.475308
5066.000000	37.531588
5064.000000	37.586889
5062.000000	37.642291
5060.000000	37.698123
5058.000000	37.754725
5056.000000	37.811462
5054.000000	37.867212
5052.000000	37.921886
5050.000000	37.976732
5048.000000	38.032603
5046.000000	38.087917
5044.000000	38.142762
5042.000000	38.198772
5040.000000	38.253906
5038.000000	38.308409
5036.000000	38.363435
5034.000000	38.421168
5032.000000	38.478690
5030.000000	38.535058
5028.000000	38.589312
5026.000000	38.644291
5024.000000	38.700350
5022.000000	38.755975
5020.000000	38.810325
5018.000000	38.864241
5016.000000	38.917756
5014.000000	38.973734
5012.000000	39.031278
5010.000000	39.089623
5008.000000	39.147544
5006.000000	39.205057
5004.000000	39.261745
5002.000000	39.319093
5000.000000	39.375982
4998.000000	39.432793
4996.000000	39.490516
4994.000000	39.548972
4992.000000	39.605771
4990.000000	39.662788
4988.000000	39.719743
4986.000000	39.778122
4984.000000	39.837170
4982.000000	39.896377
4980.000000	39.953546
4978.000000	40.010389
4976.000000	40.067819
4974.000000	40.125548
4972.000000	40.180734
4970.000000	40.234772
4968.000000	40.292085
4966.000000	40.352590
4964.000000	40.411243
4962.000000	40.467540
4960.000000	40.523248
4958.000000	40.579574
4956.000000	40.635640
4954.000000	40.692306
4952.000000	40.750600
4950.000000	40.809379
4948.000000	40.866662
4946.000000	40.921722
4944.000000	40.976232
4942.000000	41.031731
4940.000000	41.088395
4938.000000	41.145294
4936.000000	41.200818
4934.000000	41.257305
4932.000000	41.314994
4930.000000	41.372792
4928.000000	41.426768
4926.000000	41.480637
4924.000000	41.537659
4922.000000	41.597946
4920.000000	41.657095
4918.000000	41.713606
4916.000000	41.768735
4914.000000	41.824121
4912.000000	41.881086
4910.000000	41.939845
4908.000000	41.998301
4906.000000	42.055931
4904.000000	42.113005
4902.000000	42.171341
4900.000000	42.229575
4898.000000	42.289693
4896.000000	42.350016
4894.000000	42.409067
4892.000000	42.467463
4890.000000	42.527909
4888.000000	42.587315
4886.000000	42.644937
4884.000000	42.702713
4882.000000	42.762132
4880.000000	42.821185
4878.000000	42.878643
4876.000000	42.935195
4874.000000	42.993384
4872.000000	43.052856
4870.000000	43.111572
4868.000000	43.170040
4866.000000	43.229385
4864.000000	43.287320
4862.000000	43.344280
4860.000000	43.401655
4858.000000	43.460832
4856.000000	43.518228
4854.000000	43.573682
4852.000000	43.629509
4850.000000	43.688992
4848.000000	43.748230
4846.000000	43.804672
4844.000000	43.861056
4842.000000	43.919655
4840.000000	43.976783
4838.000000	44.032013
4836.000000	44.088919
4834.000000	44.148002
4832.000000	44.206206
4830.000000	44.263768
4828.000000	44.320905
4826.000000	44.377068
4824.000000	44.434258
4822.000000	44.493069
4820.000000	44.551202
4818.000000	44.608439
4816.000000	44.667241
4814.000000	44.727373
4812.000000	44.784652
4810.000000	44.840940
4808.000000	44.899545
4806.000000	44.959797
4804.000000	45.018891
4802.000000	45.077985
4800.000000	45.137730
4798.000000	45.198927
4796.000000	45.260123
4794.000000	45.320162
4792.000000	45.379474
4790.000000	45.440949
4788.000000	45.502239
4786.000000	45.562301
4784.000000	45.622050
4782.000000	45.681579
4780.000000	45.739905
4778.000000	45.797770
4776.000000	45.857007
4774.000000	45.917294
4772.000000	45.977616
4770.000000	46.037492
4768.000000	46.096230
4766.000000	46.154936
4764.000000	46.214051
4762.000000	46.273131
4760.000000	46.331117
4758.000000	46.388338
4756.000000	46.445738
4754.000000	46.504233
4752.000000	46.562500
4750.000000	46.620514
4748.000000	46.677692
4746.000000	46.734965
4744.000000	46.791264
4742.000000	46.848414
4740.000000	46.906559
4738.000000	46.965988
4736.000000	47.024789
4734.000000	47.082845
4732.000000	47.140042
4730.000000	47.197714
4728.000000	47.256310
4726.000000	47.316502
4724.000000	47.376859
4722.000000	47.437303
4720.000000	47.496876
4718.000000	47.556037
4716.000000	47.615517
4714.000000	47.676651
4712.000000	47.738752
4710.000000	47.801356
4708.000000	47.863534
4706.000000	47.925571
4704.000000	47.987774
4702.000000	48.051112
4700.000000	48.114208
4698.000000	48.176793
4696.000000	48.237838
4694.000000	48.298737
4692.000000	48.359305
4690.000000	48.420927
4688.000000	48.481637
4686.000000	48.542325
4684.000000	48.602919
4682.000000	48.663308
4680.000000	48.723262
4678.000000	48.785206
4676.000000	48.847587
4674.000000	48.908735
4672.000000	48.969276
4670.000000	49.029874
4668.000000	49.089866
4666.000000	49.150764
4664.000000	49.211822
4662.000000	49.272920
4660.000000	49.332690
4658.000000	49.392038
4656.000000	49.453138
4654.000000	49.516008
4652.000000	49.576198
4650.000000	49.635262
4648.000000	49.696402
4646.000000	49.758180
4644.000000	49.818477
4642.000000	49.879976
4640.000000	49.942021
4638.000000	50.002832
4636.000000	50.061853
4634.000000	50.121479
4632.000000	50.183283
4630.000000	50.245549
4628.000000	50.305285
4626.000000	50.365332
4624.000000	50.426689
4622.000000	50.487911
4620.000000	50.549461
4618.000000	50.611405
4616.000000	50.671497
4614.000000	50.733392
4612.000000	50.798286
4610.000000	50.864191
4608.000000	50.929752
4606.000000	50.994889
4604.000000	51.059250
4602.000000	51.124046
4600.000000	51.189546
4598.000000	51.254749
4596.000000	51.317970
4594.000000	51.379846
4592.000000	51.442114
4590.000000	51.507177
4588.000000	51.573472
4586.000000	51.638453
4584.000000	51.701746
4582.000000	51.766155
4580.000000	51.828995
4578.000000	51.890588
4576.000000	51.952892
4574.000000	52.017330
4572.000000	52.080815
4570.000000	52.143923
4568.000000	52.206906
4566.000000	52.270192
4564.000000	52.332827
4562.000000	52.395214
4560.000000	52.458232
4558.000000	52.522846
4556.000000	52.587549
4554.000000	52.650462
4552.000000	52.711651
4550.000000	52.772899
4548.000000	52.833505
4546.000000	52.893892
4544.000000	52.954738
4542.000000	53.018062
4540.000000	53.083004
4538.000000	53.147607
4536.000000	53.209377
4534.000000	53.271513
4532.000000	53.335338
4530.000000	53.398527
4528.000000	53.459373
4526.000000	53.520745
4524.000000	53.583787
4522.000000	53.648038
4520.000000	53.712210
4518.000000	53.777534
4516.000000	53.843581
4514.000000	53.909966
4512.000000	53.975136
4510.000000	54.039512
4508.000000	54.103429
4506.000000	54.167909
4504.000000	54.232014
4502.000000	54.296314
4500.000000	54.361805
4498.000000	54.429454
4496.000000	54.496126
4494.000000	54.559827
4492.000000	54.622922
4490.000000	54.688281
4488.000000	54.753774
4486.000000	54.818447
4484.000000	54.882433
4482.000000	54.947335
4480.000000	55.012279
4478.000000	55.076529
4476.000000	55.139273
4474.000000	55.202260
4472.000000	55.264314
4470.000000	55.326665
4468.000000	55.389885
4466.000000	55.452582
4464.000000	55.513894
4462.000000	55.576837
4460.000000	55.640223
4458.000000	55.701487
4456.000000	55.761263
4454.000000	55.822657
4452.000000	55.885513
4450.000000	55.947609
4448.000000	56.008943
4446.000000	56.072208
4444.000000	56.135866
4442.000000	56.198092
4440.000000	56.258933
4438.000000	56.320747
4436.000000	56.383335
4434.000000	56.445886
4432.000000	56.507993
4430.000000	56.572314
4428.000000	56.637351
4426.000000	56.700873
4424.000000	56.763302
4422.000000	56.826930
4420.000000	56.890112
4418.000000	56.952846
4416.000000	57.015736
4414.000000	57.078843
4412.000000	57.142991
4410.000000	57.209305
4408.000000	57.274913
4406.000000	57.339534
4404.000000	57.403360
4402.000000	57.467145
4400.000000	57.530994
4398.000000	57.595370
4396.000000	57.659204
4394.000000	57.723137
4392.000000	57.785887
4390.000000	57.848196
4388.000000	57.909708
4386.000000	57.970346
4384.000000	58.031300
4382.000000	58.093278
4380.000000	58.154540
4378.000000	58.216669
4376.000000	58.278179
4374.000000	58.336393
4372.000000	58.393301
4370.000000	58.452668
4368.000000	58.512742
4366.000000	58.572425
4364.000000	58.632855
4362.000000	58.695150
4360.000000	58.755808
4358.000000	58.816459
4356.000000	58.879220
4354.000000	58.943396
4352.000000	59.006683
4350.000000	59.069754
4348.000000	59.132727
4346.000000	59.196739
4344.000000	59.260152
4342.000000	59.322839
4340.000000	59.384728
4338.000000	59.447299
4336.000000	59.511938
4334.000000	59.578429
4332.000000	59.642327
4330.000000	59.705113
4328.000000	59.769815
4326.000000	59.834908
4324.000000	59.899114
4322.000000	59.966189
4320.000000	60.034693
4318.000000	60.102253
4316.000000	60.168521
4314.000000	60.235407
4312.000000	60.302638
4310.000000	60.369983
4308.000000	60.436542
4306.000000	60.502782
4304.000000	60.568697
4302.000000	60.635678
4300.000000	60.701577
4298.000000	60.765075
4296.000000	60.828271
4294.000000	60.894005
4292.000000	60.960169
4290.000000	61.025353
4288.000000	61.087557
4286.000000	61.148620
4284.000000	61.209494
4282.000000	61.270346
4280.000000	61.330231
4278.000000	61.389435
4276.000000	61.449310
4274.000000	61.511333
4272.000000	61.571723
4270.000000	61.629625
4268.000000	61.686855
4266.000000	61.745686
4264.000000	61.805926
4262.000000	61.868171
4260.000000	61.932664
4258.000000	61.996413
4256.000000	62.057480
4254.000000	62.119787
4252.000000	62.184102
4250.000000	62.248147
4248.000000	62.311316
4246.000000	62.376467
4244.000000	62.442336
4242.000000	62.506695
4240.000000	62.569708
4238.000000	62.633478
4236.000000	62.698690
4234.000000	62.764373
4232.000000	62.827306
4230.000000	62.889594
4228.000000	62.953184
4226.000000	63.018560
4224.000000	63.085001
4222.000000	63.150880
4220.000000	63.215148
4218.000000	63.279769
4216.000000	63.343729
4214.000000	63.407436
4212.000000	63.473333
4210.000000	63.541076
4208.000000	63.607532
4206.000000	63.673257
4204.000000	63.739788
4202.000000	63.807173
4200.000000	63.874678
4198.000000	63.943099
4196.000000	64.012069
4194.000000	64.080820
4192.000000	64.149194
4190.000000	64.217366
4188.000000	64.283693
4186.000000	64.349281
4184.000000	64.415932
4182.000000	64.483784
4180.000000	64.551048
4178.000000	64.617025
4176.000000	64.680788
4174.000000	64.744490
4172.000000	64.808811
4170.000000	64.873402
4168.000000	64.938308
4166.000000	65.003838
4164.000000	65.067671
4162.000000	65.131025
4160.000000	65.195449
4158.000000	65.260881
4156.000000	65.325409
4154.000000	65.389927
4152.000000	65.454635
4150.000000	65.519183
4148.000000	65.583410
4146.000000	65.648926
4144.000000	65.714662
4142.000000	65.779807
4140.000000	65.844459
4138.000000	65.910009
4136.000000	65.975616
4134.000000	66.041192
4132.000000	66.106859
4130.000000	66.173189
4128.000000	66.239670
4126.000000	66.305729
4124.000000	66.371563
4122.000000	66.439608
4120.000000	66.508524
4118.000000	66.575386
4116.000000	66.639333
4114.000000	66.704792
4112.000000	66.772358
4110.000000	66.838165
4108.000000	66.900676
4106.000000	66.962844
4104.000000	67.026677
4102.000000	67.093250
4100.000000	67.159106
4098.000000	67.222594
4096.000000	67.285918
4094.000000	67.351130
4092.000000	67.414928
4090.000000	67.479018
4088.000000	67.547879
4086.000000	67.620826
4084.000000	67.692266
4082.000000	67.760664
4080.000000	67.826792
4078.000000	67.892579
4076.000000	67.958129
4074.000000	68.025086
4072.000000	68.092538
4070.000000	68.158898
4068.000000	68.222405
4066.000000	68.285619
4064.000000	68.351495
4062.000000	68.418201
4060.000000	68.483186
4058.000000	68.549182
4056.000000	68.615107
4054.000000	68.679680
4052.000000	68.743703
4050.000000	68.808467
4048.000000	68.871995
4046.000000	68.933532
4044.000000	68.997172
4042.000000	69.066329
4040.000000	69.135156
4038.000000	69.201745
4036.000000	69.269182
4034.000000	69.337788
4032.000000	69.404946
4030.000000	69.471083
4028.000000	69.536875
4026.000000	69.604522
4024.000000	69.673563
4022.000000	69.742149
4020.000000	69.810257
4018.000000	69.879285
4016.000000	69.948126
4014.000000	70.015514
4012.000000	70.081777
4010.000000	70.150182
4008.000000	70.219999
4006.000000	70.290304
4004.000000	70.359980
4002.000000	70.428406
4000.000000	70.495685
3998.000000	70.561508
3996.000000	70.625452
3994.000000	70.689074
3992.000000	70.751631
3990.000000	70.816067
3988.000000	70.884761
3986.000000	70.952834
3984.000000	71.015482
3982.000000	71.078088
3980.000000	71.142376
3978.000000	71.201457
3976.000000	71.256106
3974.000000	71.317164
3972.000000	71.383295
3970.000000	71.448995
3968.000000	71.514931
3966.000000	71.576420
3964.000000	71.629868
3962.000000	71.686734
3960.000000	71.750739
3958.000000	71.815045
3956.000000	71.877100
3954.000000	71.934345
3952.000000	71.978648
3950.000000	72.020582
3948.000000	72.081816
3946.000000	72.146538
3944.000000	72.195413
3942.000000	72.263387
3940.000000	72.358363
3938.000000	72.441791
3936.000000	72.486939
3934.000000	72.502716
3932.000000	72.544751
3930.000000	72.638551
3928.000000	72.726515
3926.000000	72.780920
3924.000000	72.839241
3922.000000	72.896654
3920.000000	72.921769
3918.000000	72.961745
3916.000000	73.073787
3914.000000	73.215278
3912.000000	73.320348
3910.000000	73.378214
3908.000000	73.356114
3906.000000	73.238850
3904.000000	73.141568
3902.000000	73.170878
3900.000000	73.326111
3898.000000	73.559574
3896.000000	73.735156
3894.000000	73.739339
3892.000000	73.707066
3890.000000	73.778180
3888.000000	73.796667
3886.000000	73.775273
3884.000000	73.884911
3882.000000	74.008307
3880.000000	74.113773
3878.000000	74.246383
3876.000000	74.295570
3874.000000	74.241109
3872.000000	74.111836
3870.000000	74.079950
3868.000000	74.236186
3866.000000	74.366700
3864.000000	74.463253
3862.000000	74.633346
3860.000000	74.781372
3858.000000	74.642922
3856.000000	74.068922
3854.000000	73.667550
3852.000000	74.056680
3850.000000	74.780794
3848.000000	75.192281
3846.000000	75.270554
3844.000000	75.229451
3842.000000	75.124108
3840.000000	74.901904
3838.000000	74.804796
3836.000000	75.044359
3834.000000	75.356650
3832.000000	75.554349
3830.000000	75.706616
3828.000000	75.812237
3826.000000	75.848898
3824.000000	75.739868
3822.000000	75.594598
3820.000000	75.621685
3818.000000	75.632241
3816.000000	75.692964
3814.000000	76.042105
3812.000000	76.355204
3810.000000	76.337155
3808.000000	76.182353
3806.000000	76.186687
3804.000000	76.155046
3802.000000	76.055626
3800.000000	76.254078
3798.000000	76.574813
3796.000000	76.774942
3794.000000	76.938182
3792.000000	77.059477
3790.000000	77.127193
3788.000000	77.168039
3786.000000	77.200306
3784.000000	77.241768
3782.000000	77.258643
3780.000000	77.270538
3778.000000	77.368522
3776.000000	77.502005
3774.000000	77.551012
3772.000000	77.490288
3770.000000	77.453611
3768.000000	77.527061
3766.000000	77.640556
3764.000000	77.747651
3762.000000	77.779676
3760.000000	77.761674
3758.000000	77.809442
3756.000000	77.777463
3754.000000	77.447690
3752.000000	77.079217
3750.000000	77.107293
3748.000000	77.285379
3746.000000	77.175177
3744.000000	77.291251
3742.000000	77.874587
3740.000000	78.201144
3738.000000	78.076400
3736.000000	77.949400
3734.000000	78.036239
3732.000000	78.281651
3730.000000	78.569541
3728.000000	78.713188
3726.000000	78.754425
3724.000000	78.822657
3722.000000	78.921535
3720.000000	79.041483
3718.000000	79.147958
3716.000000	79.133997
3714.000000	78.935287
3712.000000	78.805231
3710.000000	78.973503
3708.000000	79.274020
3706.000000	79.466383
3704.000000	79.490481
3702.000000	79.493332
3700.000000	79.602574
3698.000000	79.728488
3696.000000	79.781842
3694.000000	79.724042
3692.000000	79.492825
3690.000000	79.222275
3688.000000	79.308867
3686.000000	79.732845
3684.000000	80.031238
3682.000000	80.082140
3680.000000	79.957112
3678.000000	79.617285
3676.000000	79.369248
3674.000000	79.484827
3672.000000	79.578306
3670.000000	79.669537
3668.000000	80.023396
3666.000000	80.358718
3664.000000	80.492930
3662.000000	80.526225
3660.000000	80.480735
3658.000000	80.337531
3656.000000	80.288673
3654.000000	80.315384
3652.000000	80.096196
3650.000000	79.829101
3648.000000	79.957223
3646.000000	80.353415
3644.000000	80.640225
3642.000000	80.745859
3640.000000	80.781185
3638.000000	80.794286
3636.000000	80.777108
3634.000000	80.711507
3632.000000	80.474481
3630.000000	80.161102
3628.000000	80.238442
3626.000000	80.623957
3624.000000	80.820879
3622.000000	80.724942
3620.000000	80.575795
3618.000000	80.604587
3616.000000	80.700083
3614.000000	80.697063
3612.000000	80.641983
3610.000000	80.604224
3608.000000	80.675488
3606.000000	80.834932
3604.000000	80.925878
3602.000000	80.920976
3600.000000	80.898734
3598.000000	80.880054
3596.000000	80.856114
3594.000000	80.863776
3592.000000	80.857174
3590.000000	80.741259
3588.000000	80.643187
3586.000000	80.723411
3584.000000	80.866146
3582.000000	80.930364
3580.000000	80.936036
3578.000000	80.931642
3576.000000	80.929516
3574.000000	80.929339
3572.000000	80.893480
3570.000000	80.767737
3568.000000	80.640641
3566.000000	80.666723
3564.000000	80.781352
3562.000000	80.847182
3560.000000	80.866493
3558.000000	80.876402
3556.000000	80.868084
3554.000000	80.837162
3552.000000	80.817065
3550.000000	80.804811
3548.000000	80.762612
3546.000000	80.728917
3544.000000	80.747966
3542.000000	80.783426
3540.000000	80.789048
3538.000000	80.765522
3536.000000	80.744345
3534.000000	80.733663
3532.000000	80.703746
3530.000000	80.651140
3528.000000	80.602326
3526.000000	80.561554
3524.000000	80.523743
3522.000000	80.502373
3520.000000	80.487400
3518.000000	80.462893
3516.000000	80.431783
3514.000000	80.392274
3512.000000	80.340585
3510.000000	80.288434
3508.000000	80.246685
3506.000000	80.192107
3504.000000	80.121643
3502.000000	80.072974
3500.000000	80.040261
3498.000000	79.993397
3496.000000	79.939441
3494.000000	79.890141
3492.000000	79.838655
3490.000000	79.781994
3488.000000	79.729651
3486.000000	79.687224
3484.000000	79.646434
3482.000000	79.612176
3480.000000	79.596900
3478.000000	79.593375
3476.000000	79.591427
3474.000000	79.595176
3472.000000	79.602736
3470.000000	79.610751
3468.000000	79.625776
3466.000000	79.653821
3464.000000	79.690814
3462.000000	79.729850
3460.000000	79.768328
3458.000000	79.803197
3456.000000	79.835328
3454.000000	79.865152
3452.000000	79.887350
3450.000000	79.895694
3448.000000	79.900545
3446.000000	79.928189
3444.000000	79.975430
3442.000000	80.033007
3440.000000	80.106432
3438.000000	80.192595
3436.000000	80.293742
3434.000000	80.415512
3432.000000	80.553343
3430.000000	80.695017
3428.000000	80.835654
3426.000000	80.970317
3424.000000	81.090117
3422.000000	81.198504
3420.000000	81.307736
3418.000000	81.418595
3416.000000	81.517483
3414.000000	81.599558
3412.000000	81.673814
3410.000000	81.742197
3408.000000	81.801436
3406.000000	81.855606
3404.000000	81.907312
3402.000000	81.958044
3400.000000	82.017114
3398.000000	82.090770
3396.000000	82.169360
3394.000000	82.240441
3392.000000	82.309278
3390.000000	82.384389
3388.000000	82.456905
3386.000000	82.519925
3384.000000	82.579326
3382.000000	82.637485
3380.000000	82.691875
3378.000000	82.742222
3376.000000	82.790911
3374.000000	82.839603
3372.000000	82.881753
3370.000000	82.916273
3368.000000	82.955591
3366.000000	83.002024
3364.000000	83.049300
3362.000000	83.095823
3360.000000	83.142628
3358.000000	83.187900
3356.000000	83.230133
3354.000000	83.271523
3352.000000	83.310667
3350.000000	83.349604
3348.000000	83.392466
3346.000000	83.436084
3344.000000	83.478074
3342.000000	83.519872
3340.000000	83.556552
3338.000000	83.590941
3336.000000	83.633197
3334.000000	83.678942
3332.000000	83.721289
3330.000000	83.758106
3328.000000	83.791033
3326.000000	83.823792
3324.000000	83.861978
3322.000000	83.903340
3320.000000	83.941446
3318.000000	83.977377
3316.000000	84.011458
3314.000000	84.044425
3312.000000	84.076389
3310.000000	84.106098
3308.000000	84.133923
3306.000000	84.164676
3304.000000	84.205503
3302.000000	84.250597
3300.000000	84.290065
3298.000000	84.324354
3296.000000	84.357070
3294.000000	84.388708
3292.000000	84.422907
3290.000000	84.464742
3288.000000	84.507872
3286.000000	84.546341
3284.000000	84.584463
3282.000000	84.623828
3280.000000	84.660712
3278.000000	84.694564
3276.000000	84.728586
3274.000000	84.764511
3272.000000	84.803607
3270.000000	84.848373
3268.000000	84.895193
3266.000000	84.940344
3264.000000	84.984205
3262.000000	85.028078
3260.000000	85.071705
3258.000000	85.113782
3256.000000	85.157362
3254.000000	85.205669
3252.000000	85.256590
3250.000000	85.304153
3248.000000	85.348379
3246.000000	85.393006
3244.000000	85.442011
3242.000000	85.494844
3240.000000	85.547295
3238.000000	85.597664
3236.000000	85.644800
3234.000000	85.688183
3232.000000	85.736073
3230.000000	85.789544
3228.000000	85.842188
3226.000000	85.894704
3224.000000	85.945773
3222.000000	85.992272
3220.000000	86.037651
3218.000000	86.086188
3216.000000	86.134960
3214.000000	86.183732
3212.000000	86.233675
3210.000000	86.285184
3208.000000	86.344855
3206.000000	86.409389
3204.000000	86.474964
3202.000000	86.543227
3200.000000	86.611198
3198.000000	86.681476
3196.000000	86.757637
3194.000000	86.833602
3192.000000	86.906615
3190.000000	86.978179
3188.000000	87.048458
3186.000000	87.118142
3184.000000	87.188917
3182.000000	87.259989
3180.000000	87.329733
3178.000000	87.399789
3176.000000	87.472989
3174.000000	87.546314
3172.000000	87.618723
3170.000000	87.690933
3168.000000	87.764160
3166.000000	87.839911
3164.000000	87.917226
3162.000000	87.993515
3160.000000	88.070374
3158.000000	88.149024
3156.000000	88.226923
3154.000000	88.301610
3152.000000	88.377299
3150.000000	88.458876
3148.000000	88.540529
3146.000000	88.616381
3144.000000	88.689800
3142.000000	88.764108
3140.000000	88.837425
3138.000000	88.907259
3136.000000	88.975856
3134.000000	89.042939
3132.000000	89.110004
3130.000000	89.178178
3128.000000	89.243841
3126.000000	89.307409
3124.000000	89.367211
3122.000000	89.419751
3120.000000	89.470810
3118.000000	89.523128
3116.000000	89.577157
3114.000000	89.636679
3112.000000	89.695842
3110.000000	89.747010
3108.000000	89.797152
3106.000000	89.855953
3104.000000	89.918702
3102.000000	89.978471
3100.000000	90.039859
3098.000000	90.104585
3096.000000	90.168516
3094.000000	90.233940
3092.000000	90.297857
3090.000000	90.357085
3088.000000	90.415660
3086.000000	90.469590
3084.000000	90.518805
3082.000000	90.564644
3080.000000	90.604060
3078.000000	90.641992
3076.000000	90.680935
3074.000000	90.711029
3072.000000	90.729321
3070.000000	90.739097
3068.000000	90.746337
3066.000000	90.764034
3064.000000	90.799282
3062.000000	90.846652
3060.000000	90.900153
3058.000000	90.956719
3056.000000	91.019294
3054.000000	91.083986
3052.000000	91.140986
3050.000000	91.191326
3048.000000	91.239311
3046.000000	91.281421
3044.000000	91.313540
3042.000000	91.340032
3040.000000	91.365426
3038.000000	91.384219
3036.000000	91.393895
3034.000000	91.396045
3032.000000	91.385464
3030.000000	91.353409
3028.000000	91.287781
3026.000000	91.180687
3024.000000	91.051876
3022.000000	90.935858
3020.000000	90.871751
3018.000000	90.898381
3016.000000	91.036488
3014.000000	91.272132
3012.000000	91.558019
3010.000000	91.834730
3008.000000	92.061525
3006.000000	92.224395
3004.000000	92.337175
3002.000000	92.418302
3000.000000	92.476542
2998.000000	92.517537
2996.000000	92.548080
2994.000000	92.567999
2992.000000	92.577682
2990.000000	92.579105
2988.000000	92.567610
2986.000000	92.534920
2984.000000	92.476916
2982.000000	92.390354
2980.000000	92.271393
2978.000000	92.109441
2976.000000	91.886822
2974.000000	91.585276
2972.000000	91.193458
2970.000000	90.716295
2968.000000	90.197829
2966.000000	89.717755
2964.000000	89.362351
2962.000000	89.189775
2960.000000	89.201241
2958.000000	89.338983
2956.000000	89.528546
2954.000000	89.711448
2952.000000	89.853875
2950.000000	89.925596
2948.000000	89.893099
2946.000000	89.734073
2944.000000	89.445798
2942.000000	89.037930
2940.000000	88.546569
2938.000000	88.034858
2936.000000	87.564025
2934.000000	87.146368
2932.000000	86.749582
2930.000000	86.359754
2928.000000	86.030115
2926.000000	85.864482
2924.000000	85.969632
2922.000000	86.385940
2920.000000	87.058245
2918.000000	87.873795
2916.000000	88.725262
2914.000000	89.528176
2912.000000	90.218396
2910.000000	90.769053
2908.000000	91.199395
2906.000000	91.548433
2904.000000	91.849509
2902.000000	92.122746
2900.000000	92.377075
2898.000000	92.614473
2896.000000	92.841792
2894.000000	93.058988
2892.000000	93.263277
2890.000000	93.450048
2888.000000	93.613166
2886.000000	93.743226
2884.000000	93.832651
2882.000000	93.877678
2880.000000	93.876334
2878.000000	93.824340
2876.000000	93.715676
2874.000000	93.541091
2872.000000	93.289050
2870.000000	92.931237
2868.000000	92.448289
2866.000000	91.878406
2864.000000	91.338217
2862.000000	90.983424
2860.000000	90.905887
2858.000000	91.070512
2856.000000	91.370428
2854.000000	91.726043
2852.000000	92.137211
2850.000000	92.643581
2848.000000	93.246419
2846.000000	93.863986
2844.000000	94.404830
2842.000000	94.837721
2840.000000	95.179286
2838.000000	95.450867
2836.000000	95.671522
2834.000000	95.855650
2832.000000	96.012051
2830.000000	96.146691
2828.000000	96.267150
2826.000000	96.378065
2824.000000	96.481944
2822.000000	96.576248
2820.000000	96.662582
2818.000000	96.739613
2816.000000	96.810131
2814.000000	96.876346
2812.000000	96.935520
2810.000000	96.988103
2808.000000	97.038783
2806.000000	97.085877
2804.000000	97.132309
2802.000000	97.179469
2800.000000	97.223866
2798.000000	97.264807
2796.000000	97.306507
2794.000000	97.350437
2792.000000	97.398681
2790.000000	97.456028
2788.000000	97.526993
2786.000000	97.607421
2784.000000	97.692325
2782.000000	97.774907
2780.000000	97.849464
2778.000000	97.915517
2776.000000	97.976352
2774.000000	98.035094
2772.000000	98.091333
2770.000000	98.142736
2768.000000	98.192524
2766.000000	98.242324
2764.000000	98.291682
2762.000000	98.338891
2760.000000	98.384022
2758.000000	98.428328
2756.000000	98.473224
2754.000000	98.516791
2752.000000	98.558465
2750.000000	98.597072
2748.000000	98.634134
2746.000000	98.671898
2744.000000	98.708477
2742.000000	98.743782
2740.000000	98.779411
2738.000000	98.813299
2736.000000	98.848678
2734.000000	98.883685
2732.000000	98.918269
2730.000000	98.952220
2728.000000	98.985582
2726.000000	99.019253
2724.000000	99.052445
2722.000000	99.084213
2720.000000	99.117381
2718.000000	99.148316
2716.000000	99.177987
2714.000000	99.206366
2712.000000	99.231629
2710.000000	99.256170
2708.000000	99.281008
2706.000000	99.306820
2704.000000	99.338592
2702.000000	99.376127
2700.000000	99.418230
2698.000000	99.465534
2696.000000	99.516879
2694.000000	99.563529
2692.000000	99.606142
2690.000000	99.647878
2688.000000	99.689352
2686.000000	99.730913
2684.000000	99.772042
2682.000000	99.808117
2680.000000	99.844394
2678.000000	99.881165
2676.000000	99.915263
2674.000000	99.945666
2672.000000	99.975726
2670.000000	100.006862
2668.000000	100.038252
2666.000000	100.068610
2664.000000	100.098635
2662.000000	100.126457
2660.000000	100.155852
2658.000000	100.189404
2656.000000	100.225124
2654.000000	100.260485
2652.000000	100.300147
2650.000000	100.341656
2648.000000	100.384063
2646.000000	100.424079
2644.000000	100.461518
2642.000000	100.496866
2640.000000	100.532695
2638.000000	100.568402
2636.000000	100.603096
2634.000000	100.635805
2632.000000	100.668667
2630.000000	100.699729
2628.000000	100.729493
2626.000000	100.759592
2624.000000	100.790030
2622.000000	100.817735
2620.000000	100.845047
2618.000000	100.873123
2616.000000	100.900904
2614.000000	100.926094
2612.000000	100.951955
2610.000000	100.974034
2608.000000	100.993321
2606.000000	101.011917
2604.000000	101.027452
2602.000000	101.039681
2600.000000	101.051719
2598.000000	101.061305
2596.000000	101.072727
2594.000000	101.088895
2592.000000	101.112105
2590.000000	101.145194
2588.000000	101.190045
2586.000000	101.242169
2584.000000	101.300539
2582.000000	101.363179
2580.000000	101.426473
2578.000000	101.485472
2576.000000	101.540093
2574.000000	101.587581
2572.000000	101.631345
2570.000000	101.672995
2568.000000	101.712422
2566.000000	101.746584
2564.000000	101.779614
2562.000000	101.811464
2560.000000	101.842425
2558.000000	101.871553
2556.000000	101.898869
2554.000000	101.925169
2552.000000	101.952301
2550.000000	101.978326
2548.000000	102.004790
2546.000000	102.032716
2544.000000	102.062606
2542.000000	102.090295
2540.000000	102.117567
2538.000000	102.145222
2536.000000	102.173034
2534.000000	102.199308
2532.000000	102.225935
2530.000000	102.251730
2528.000000	102.278230
2526.000000	102.303344
2524.000000	102.329376
2522.000000	102.355363
2520.000000	102.381130
2518.000000	102.405482
2516.000000	102.429397
2514.000000	102.451554
2512.000000	102.474830
2510.000000	102.496876
2508.000000	102.519250
2506.000000	102.540399
2504.000000	102.562175
2502.000000	102.585158
2500.000000	102.611716
2498.000000	102.637003
2496.000000	102.663115
2494.000000	102.689979
2492.000000	102.717573
2490.000000	102.744238
2488.000000	102.770493
2486.000000	102.796999
2484.000000	102.825925
2482.000000	102.852656
2480.000000	102.878466
2478.000000	102.902654
2476.000000	102.926799
2474.000000	102.949993
2472.000000	102.971982
2470.000000	102.990548
2468.000000	103.008353
2466.000000	103.024953
2464.000000	103.042182
2462.000000	103.059871
2460.000000	103.079607
2458.000000	103.098293
2456.000000	103.115824
2454.000000	103.130481
2452.000000	103.146844
2450.000000	103.165703
2448.000000	103.183790
2446.000000	103.199918
2444.000000	103.218611
2442.000000	103.235708
2440.000000	103.250759
2438.000000	103.264477
2436.000000	103.280179
2434.000000	103.295062
2432.000000	103.309129
2430.000000	103.320384
2428.000000	103.331585
2426.000000	103.344750
2424.000000	103.362862
2422.000000	103.380976
2420.000000	103.397840
2418.000000	103.411511
2416.000000	103.423956
2414.000000	103.435098
2412.000000	103.445741
2410.000000	103.457731
2408.000000	103.473105
2406.000000	103.486824
2404.000000	103.502438
2402.000000	103.518562
2400.000000	103.535338
2398.000000	103.552919
2396.000000	103.571562
2394.000000	103.589263
2392.000000	103.608256
2390.000000	103.626267
2388.000000	103.640842
2386.000000	103.647854
2384.000000	103.643518
2382.000000	103.617367
2380.000000	103.564049
2378.000000	103.474414
2376.000000	103.343118
2374.000000	103.173872
2372.000000	102.977730
2370.000000	102.766068
2368.000000	102.563699
2366.000000	102.397381
2364.000000	102.289740
2362.000000	102.253296
2360.000000	102.301153
2358.000000	102.433538
2356.000000	102.643751
2354.000000	102.918447
2352.000000	103.224981
2350.000000	103.446162
2348.000000	103.438014
2346.000000	103.246852
2344.000000	103.039412
2342.000000	102.886611
2340.000000	102.799071
2338.000000	102.762425
2336.000000	102.763482
2334.000000	102.792938
2332.000000	102.847117
2330.000000	102.921067
2328.000000	103.013103
2326.000000	103.115308
2324.000000	103.223697
2322.000000	103.329861
2320.000000	103.431607
2318.000000	103.523730
2316.000000	103.606088
2314.000000	103.678514
2312.000000	103.743412
2310.000000	103.796837
2308.000000	103.842765
2306.000000	103.881639
2304.000000	103.914509
2302.000000	103.940378
2300.000000	103.961906
2298.000000	103.980044
2296.000000	103.999603
2294.000000	104.014614
2292.000000	104.028281
2290.000000	104.040520
2288.000000	104.053093
2286.000000	104.062264
2284.000000	104.068216
2282.000000	104.070129
2280.000000	104.069617
2278.000000	104.068034
2276.000000	104.064586
2274.000000	104.056890
2272.000000	104.051863
2270.000000	104.045779
2268.000000	104.042854
2266.000000	104.039307
2264.000000	104.034505
2262.000000	104.032161
2260.000000	104.034758
2258.000000	104.034298
2256.000000	104.033109
2254.000000	104.033847
2252.000000	104.038881
2250.000000	104.044594
2248.000000	104.052535
2246.000000	104.061117
2244.000000	104.074512
2242.000000	104.088252
2240.000000	104.101881
2238.000000	104.115706
2236.000000	104.130261
2234.000000	104.143799
2232.000000	104.159083
2230.000000	104.171692
2228.000000	104.184589
2226.000000	104.194544
2224.000000	104.205674
2222.000000	104.216448
2220.000000	104.226755
2218.000000	104.234486
2216.000000	104.241958
2214.000000	104.247861
2212.000000	104.255161
2210.000000	104.261026
2208.000000	104.267324
2206.000000	104.271821
2204.000000	104.278375
2202.000000	104.283446
2200.000000	104.287824
2198.000000	104.291473
2196.000000	104.294712
2194.000000	104.295494
2192.000000	104.297052
2190.000000	104.295921
2188.000000	104.296020
2186.000000	104.297147
2184.000000	104.299576
2182.000000	104.299765
2180.000000	104.300174
2178.000000	104.298071
2176.000000	104.298240
2174.000000	104.291509
2172.000000	104.267286
2170.000000	104.242132
2168.000000	104.253350
2166.000000	104.275482
2164.000000	104.285537
2162.000000	104.287541
2160.000000	104.287745
2158.000000	104.285226
2156.000000	104.288248
2154.000000	104.289401
2152.000000	104.286411
2150.000000	104.281066
2148.000000	104.280133
2146.000000	104.281272
2144.000000	104.282467
2142.000000	104.279711
2140.000000	104.277867
2138.000000	104.274219
2136.000000	104.273898
2134.000000	104.276207
2132.000000	104.276484
2130.000000	104.273882
2128.000000	104.272956
2126.000000	104.272692
2124.000000	104.272919
2122.000000	104.273952
2120.000000	104.276314
2118.000000	104.280134
2116.000000	104.286528
2114.000000	104.292587
2112.000000	104.303050
2110.000000	104.315486
2108.000000	104.326932
2106.000000	104.338311
2104.000000	104.352017
2102.000000	104.364480
2100.000000	104.377527
2098.000000	104.390039
2096.000000	104.405336
2094.000000	104.418461
2092.000000	104.430593
2090.000000	104.440691
2088.000000	104.458345
2086.000000	104.474953
2084.000000	104.494036
2082.000000	104.509378
2080.000000	104.526601
2078.000000	104.540350
2076.000000	104.556087
2074.000000	104.571589
2072.000000	104.590865
2070.000000	104.608091
2068.000000	104.624044
2066.000000	104.636661
2064.000000	104.661696
2062.000000	104.690106
2060.000000	104.714177
2058.000000	104.734276
2056.000000	104.755630
2054.000000	104.774967
2052.000000	104.796204
2050.000000	104.816730
2048.000000	104.839671
2046.000000	104.858380
2044.000000	104.873784
2042.000000	104.885676
2040.000000	104.905404
2038.000000	104.922501
2036.000000	104.935345
2034.000000	104.944205
2032.000000	104.946993
2030.000000	104.931138
2028.000000	104.939686
2026.000000	104.974461
2024.000000	104.998773
2022.000000	105.009355
2020.000000	105.009620
2018.000000	105.004415
2016.000000	105.025985
2014.000000	105.060907
2012.000000	105.085927
2010.000000	105.101240
2008.000000	105.117966
2006.000000	105.131623
2004.000000	105.141470
2002.000000	105.147063
2000.000000	105.153054
1998.000000	105.159964
1996.000000	105.162146
1994.000000	105.130272
1992.000000	105.103006
1990.000000	105.123972
1988.000000	105.146213
1986.000000	105.152614
1984.000000	105.150350
1982.000000	105.140048
1980.000000	105.129225
1978.000000	105.115839
1976.000000	105.101755
1974.000000	105.084603
1972.000000	105.065869
1970.000000	105.033896
1968.000000	104.985898
1966.000000	104.965811
1964.000000	104.963664
1962.000000	104.907347
1960.000000	104.785905
1958.000000	104.755956
1956.000000	104.838295
1954.000000	104.866050
1952.000000	104.847051
1950.000000	104.813445
1948.000000	104.788743
1946.000000	104.750714
1944.000000	104.676340
1942.000000	104.640736
1940.000000	104.687197
1938.000000	104.696690
1936.000000	104.676834
1934.000000	104.646927
1932.000000	104.621227
1930.000000	104.592839
1928.000000	104.563841
1926.000000	104.511072
1924.000000	104.432247
1922.000000	104.383156
1920.000000	104.300737
1918.000000	104.196240
1916.000000	104.253041
1914.000000	104.288672
1912.000000	104.232392
1910.000000	104.151662
1908.000000	104.109132
1906.000000	104.074663
1904.000000	104.031417
1902.000000	103.976604
1900.000000	103.930010
1898.000000	103.869894
1896.000000	103.806621
1894.000000	103.772246
1892.000000	103.727879
1890.000000	103.642508
1888.000000	103.664406
1886.000000	103.702960
1884.000000	103.696835
1882.000000	103.678377
1880.000000	103.659419
1878.000000	103.633714
1876.000000	103.614164
1874.000000	103.577947
1872.000000	103.465817
1870.000000	103.246304
1868.000000	103.212643
1866.000000	103.349928
1864.000000	103.415153
1862.000000	103.394342
1860.000000	103.363583
1858.000000	103.331728
1856.000000	103.307815
1854.000000	103.270906
1852.000000	103.231407
1850.000000	103.164542
1848.000000	103.045680
1846.000000	102.733007
1844.000000	102.532306
1842.000000	102.768526
1840.000000	102.924170
1838.000000	102.871667
1836.000000	102.819325
1834.000000	102.753458
1832.000000	102.550289
1830.000000	102.342788
1828.000000	102.360414
1826.000000	102.316589
1824.000000	102.305700
1822.000000	102.364970
1820.000000	102.333447
1818.000000	102.252262
1816.000000	102.189398
1814.000000	102.100134
1812.000000	101.954860
1810.000000	101.852861
1808.000000	101.821196
1806.000000	101.750763
1804.000000	101.597206
1802.000000	101.372221
1800.000000	101.242351
1798.000000	101.216643
1796.000000	101.093079
1794.000000	100.690973
1792.000000	100.450628
1790.000000	100.636747
1788.000000	100.721726
1786.000000	100.543524
1784.000000	100.407981
1782.000000	100.308513
1780.000000	100.205810
1778.000000	100.138672
1776.000000	99.910747
1774.000000	99.356542
1772.000000	99.063229
1770.000000	99.278514
1768.000000	99.390378
1766.000000	99.501139
1764.000000	99.368731
1762.000000	99.090165
1760.000000	99.074164
1758.000000	98.981764
1756.000000	98.846308
1754.000000	98.655943
1752.000000	98.145755
1750.000000	97.937785
1748.000000	98.018760
1746.000000	98.005078
1744.000000	97.855434
1742.000000	97.578711
1740.000000	97.309882
1738.000000	97.247580
1736.000000	96.643831
1734.000000	96.027807
1732.000000	96.558126
1730.000000	97.069706
1728.000000	97.180361
1726.000000	97.157139
1724.000000	97.071201
1722.000000	96.934500
1720.000000	96.359180
1718.000000	95.564451
1716.000000	95.683196
1714.000000	96.224254
1712.000000	96.470351
1710.000000	96.399041
1708.000000	96.148872
1706.000000	95.852751
1704.000000	95.683011
1702.000000	94.944474
1700.000000	94.385574
1698.000000	94.557875
1696.000000	94.479604
1694.000000	95.139947
1692.000000	95.723357
1690.000000	95.667390
1688.000000	95.347599
1686.000000	94.345013
1684.000000	93.949037
1682.000000	94.808591
1680.000000	95.293517
1678.000000	95.160010
1676.000000	94.715635
1674.000000	94.683915
1672.000000	94.694713
1670.000000	94.404461
1668.000000	94.527077
1666.000000	94.725254
1664.000000	94.482640
1662.000000	94.342160
1660.000000	94.466242
1658.000000	94.368125
1656.000000	93.519668
1654.000000	91.955968
1652.000000	92.016790
1650.000000	93.184964
1648.000000	93.079414
1646.000000	92.817336
1644.000000	93.223276
1642.000000	93.443252
1640.000000	93.242036
1638.000000	92.631935
1636.000000	91.920915
1634.000000	92.147002
1632.000000	92.557816
1630.000000	92.380419
1628.000000	92.024710
1626.000000	91.643966
1624.000000	91.097201
1622.000000	90.722616
1620.000000	90.321258
1618.000000	89.415136
1616.000000	88.936767
1614.000000	89.000517
1612.000000	88.557176
1610.000000	87.932968
1608.000000	87.609050
1606.000000	87.636027
1604.000000	87.829940
1602.000000	88.074693
1600.000000	88.312236
1598.000000	88.517670
1596.000000	88.666942
1594.000000	88.783571
1592.000000	88.850622
1590.000000	88.854609
1588.000000	88.815736
1586.000000	88.748410
1584.000000	88.674742
1582.000000	88.624974
1580.000000	88.501512
1578.000000	87.894183
1576.000000	87.453954
1574.000000	87.983379
1572.000000	88.134603
1570.000000	87.785777
1568.000000	87.779244
1566.000000	87.771141
1564.000000	87.485892
1562.000000	86.585951
1560.000000	85.172723
1558.000000	85.148577
1556.000000	86.115762
1554.000000	86.693971
1552.000000	87.159056
1550.000000	87.446971
1548.000000	87.626569
1546.000000	87.576334
1544.000000	87.339840
1542.000000	86.868116
1540.000000	86.629794
1538.000000	87.548994
1536.000000	88.465304
1534.000000	88.531296
1532.000000	88.777542
1530.000000	89.017815
1528.000000	88.896925
1526.000000	88.686958
1524.000000	88.409624
1522.000000	87.889935
1520.000000	87.935161
1518.000000	88.139097
1516.000000	88.054157
1514.000000	87.974483
1512.000000	87.781880
1510.000000	87.343661
1508.000000	86.265911
1506.000000	85.606349
1504.000000	85.734324
1502.000000	84.870007
1500.000000	82.446118
1498.000000	79.192872
1496.000000	76.672046
1494.000000	76.234354
1492.000000	77.317495
1490.000000	79.083663
1488.000000	81.017797
1486.000000	82.592367
1484.000000	83.625643
1482.000000	84.144653
1480.000000	84.384484
1478.000000	84.328198
1476.000000	84.022225
1474.000000	83.542810
1472.000000	83.347803
1470.000000	83.529439
1468.000000	83.365400
1466.000000	82.805613
1464.000000	82.417219
1462.000000	82.132281
1460.000000	81.223158
1458.000000	79.658691
1456.000000	78.628765
1454.000000	78.233717
1452.000000	77.745712
1450.000000	77.820921
1448.000000	78.650263
1446.000000	79.619325
1444.000000	80.108255
1442.000000	80.226040
1440.000000	80.135366
1438.000000	79.785923
1436.000000	79.759390
1434.000000	80.183231
1432.000000	80.272464
1430.000000	80.207229
1428.000000	80.233911
1426.000000	80.238512
1424.000000	80.137394
1422.000000	79.913714
1420.000000	79.426475
1418.000000	79.352587
1416.000000	79.508291
1414.000000	79.386675
1412.000000	79.037498
1410.000000	78.511302
1408.000000	77.760642
1406.000000	76.941265
1404.000000	76.469163
1402.000000	76.481829
1400.000000	76.709694
1398.000000	77.138739
1396.000000	77.514407
1394.000000	77.834214
1392.000000	78.161170
1390.000000	78.168127
1388.000000	77.855060
1386.000000	77.574939
1384.000000	77.479629
1382.000000	77.585460
1380.000000	77.682649
1378.000000	77.628283
1376.000000	77.472631
1374.000000	77.340155
1372.000000	77.305729
1370.000000	77.211936
1368.000000	77.054508
1366.000000	76.892981
1364.000000	76.664525
1362.000000	76.480951
1360.000000	76.385928
1358.000000	76.256690
1356.000000	76.064317
1354.000000	75.857188
1352.000000	75.649415
1350.000000	75.436679
1348.000000	75.218494
1346.000000	74.989268
1344.000000	74.742559
1342.000000	74.470475
1340.000000	74.214398
1338.000000	74.075293
1336.000000	74.001618
1334.000000	73.905738
1332.000000	73.753441
1330.000000	73.563711
1328.000000	73.342350
1326.000000	73.098237
1324.000000	72.835092
1322.000000	72.552645
1320.000000	72.245920
1318.000000	71.946506
1316.000000	71.651133
1314.000000	71.340759
1312.000000	71.028214
1310.000000	70.716973
1308.000000	70.391027
1306.000000	70.061193
1304.000000	69.721354
1302.000000	69.376817
1300.000000	69.029816
1298.000000	68.685364
1296.000000	68.331371
1294.000000	67.965390
1292.000000	67.583553
1290.000000	67.189145
1288.000000	66.786339
1286.000000	66.386156
1284.000000	65.974112
1282.000000	65.542984
1280.000000	65.085408
1278.000000	64.598765
1276.000000	64.060686
1274.000000	63.448298
1272.000000	62.719934
1270.000000	61.835566
1268.000000	60.735106
1266.000000	59.419746
1264.000000	58.052398
1262.000000	56.955705
1260.000000	56.406908
1258.000000	56.413601
1256.000000	56.702645
1254.000000	56.942165
1252.000000	56.934436
1250.000000	56.689958
1248.000000	56.296082
1246.000000	55.825918
1244.000000	55.317920
1242.000000	54.803489
1240.000000	54.296199
1238.000000	53.805038
1236.000000	53.329324
1234.000000	52.868449
1232.000000	52.414148
1230.000000	51.968883
1228.000000	51.522546
1226.000000	51.073182
1224.000000	50.613966
1222.000000	50.143512
1220.000000	49.654058
1218.000000	49.145372
1216.000000	48.625204
1214.000000	48.112004
1212.000000	47.618199
1210.000000	47.163066
1208.000000	46.746915
1206.000000	46.351053
1204.000000	45.953371
1202.000000	45.555451
1200.000000	45.162125
1198.000000	44.777253
1196.000000	44.386689
1194.000000	43.981784
1192.000000	43.564050
1190.000000	43.135903
1188.000000	42.692680
1186.000000	42.223116
1184.000000	41.644614
1182.000000	40.919532
1180.000000	40.350350
1178.000000	40.099563
1176.000000	39.868559
1174.000000	39.512958
1172.000000	39.086265
1170.000000	38.638307
1168.000000	38.173026
1166.000000	37.699537
1164.000000	37.228239
1162.000000	36.767046
1160.000000	36.313197
1158.000000	35.879324
1156.000000	35.457868
1154.000000	35.038394
1152.000000	34.612991
1150.000000	34.192020
1148.000000	33.761290
1146.000000	33.321978
1144.000000	32.893599
1142.000000	32.514445
1140.000000	32.200390
1138.000000	31.887254
1136.000000	31.526613
1134.000000	31.133558
1132.000000	30.719252
1130.000000	30.293927
1128.000000	29.871831
1126.000000	29.452277
1124.000000	29.022981
1122.000000	28.586908
1120.000000	28.137794
1118.000000	27.680994
1116.000000	27.215325
1114.000000	26.746794
1112.000000	26.279405
1110.000000	25.817137
1108.000000	25.364230
1106.000000	24.930946
1104.000000	24.511684
1102.000000	24.098609
1100.000000	23.686393
1098.000000	23.280262
1096.000000	22.882260
1094.000000	22.500081
1092.000000	22.133006
1090.000000	21.780824
1088.000000	21.436782
1086.000000	21.100050
1084.000000	20.753807
1082.000000	20.396787
1080.000000	20.058637
1078.000000	19.753554
1076.000000	19.475771
1074.000000	19.241355
1072.000000	19.025086
1070.000000	18.800921
1068.000000	18.570725
1066.000000	18.338962
1064.000000	18.104951
1062.000000	17.871700
1060.000000	17.623805
1058.000000	17.336355
1056.000000	16.950269
1054.000000	16.441705
1052.000000	15.933300
1050.000000	15.632037
1048.000000	15.594716
1046.000000	15.675465
1044.000000	15.678451
1042.000000	15.560428
1040.000000	15.374621
1038.000000	15.162481
1036.000000	14.934508
1034.000000	14.698033
1032.000000	14.449791
1030.000000	14.191488
1028.000000	13.925579
1026.000000	13.655398
1024.000000	13.383124
1022.000000	13.116866
1020.000000	12.863656
1018.000000	12.629947
1016.000000	12.415144
1014.000000	12.226568
1012.000000	12.056998
1010.000000	11.895009
1008.000000	11.728898
1006.000000	11.551128
1004.000000	11.353712
1002.000000	11.141092
1000.000000	10.915174
