PE IR       SUBTECH     SPECTRUM    ASCII       PEDS        4.00        
   -1
TE109A_012_80K_BG.ASC
20/04/21
12:20:36.00
20/04/21
12:20:36.00
Administrator
TE109A, Tuesday, April 21 2020, 012.
1000.000000
#HDR
-1
-1
#GR
cm-1
EGY
1.0
0.0
6000.000000
-2.000000
2501
8
104.130665
10.979906
#DATA
6000.000000	15.560727
5998.000000	15.591262
5996.000000	15.620777
5994.000000	15.651263
5992.000000	15.681111
5990.000000	15.711622
5988.000000	15.742146
5986.000000	15.774009
5984.000000	15.805574
5982.000000	15.837127
5980.000000	15.867250
5978.000000	15.898208
5976.000000	15.930390
5974.000000	15.962481
5972.000000	15.994199
5970.000000	16.024821
5968.000000	16.054393
5966.000000	16.086577
5964.000000	16.118434
5962.000000	16.152031
5960.000000	16.185127
5958.000000	16.217046
5956.000000	16.248512
5954.000000	16.278642
5952.000000	16.308971
5950.000000	16.340220
5948.000000	16.370828
5946.000000	16.402983
5944.000000	16.434686
5942.000000	16.466709
5940.000000	16.497233
5938.000000	16.527382
5936.000000	16.558374
5934.000000	16.590548
5932.000000	16.622241
5930.000000	16.653285
5928.000000	16.684471
5926.000000	16.718117
5924.000000	16.752208
5922.000000	16.787137
5920.000000	16.820667
5918.000000	16.854370
5916.000000	16.885983
5914.000000	16.917638
5912.000000	16.950825
5910.000000	16.986174
5908.000000	17.020170
5906.000000	17.052607
5904.000000	17.085465
5902.000000	17.120109
5900.000000	17.154859
5898.000000	17.189403
5896.000000	17.222519
5894.000000	17.256710
5892.000000	17.290291
5890.000000	17.322671
5888.000000	17.355486
5886.000000	17.388759
5884.000000	17.422651
5882.000000	17.456056
5880.000000	17.489395
5878.000000	17.524455
5876.000000	17.559671
5874.000000	17.594336
5872.000000	17.626879
5870.000000	17.659904
5868.000000	17.693864
5866.000000	17.729928
5864.000000	17.765819
5862.000000	17.801557
5860.000000	17.835249
5858.000000	17.869289
5856.000000	17.904340
5854.000000	17.940404
5852.000000	17.975089
5850.000000	18.009462
5848.000000	18.044714
5846.000000	18.083593
5844.000000	18.122568
5842.000000	18.160147
5840.000000	18.197752
5838.000000	18.236442
5836.000000	18.274480
5834.000000	18.313041
5832.000000	18.351472
5830.000000	18.390642
5828.000000	18.428752
5826.000000	18.467011
5824.000000	18.506095
5822.000000	18.545499
5820.000000	18.583620
5818.000000	18.622055
5816.000000	18.660049
5814.000000	18.697993
5812.000000	18.734997
5810.000000	18.773638
5808.000000	18.812194
5806.000000	18.849128
5804.000000	18.884743
5802.000000	18.921636
5800.000000	18.959768
5798.000000	18.998486
5796.000000	19.035533
5794.000000	19.073888
5792.000000	19.111743
5790.000000	19.148725
5788.000000	19.186345
5786.000000	19.226417
5784.000000	19.267849
5782.000000	19.307648
5780.000000	19.345102
5778.000000	19.383008
5776.000000	19.422728
5774.000000	19.463514
5772.000000	19.501891
5770.000000	19.540891
5768.000000	19.579543
5766.000000	19.618409
5764.000000	19.657120
5762.000000	19.695675
5760.000000	19.735060
5758.000000	19.773220
5756.000000	19.809914
5754.000000	19.851208
5752.000000	19.893198
5750.000000	19.933445
5748.000000	19.970383
5746.000000	20.008765
5744.000000	20.047938
5742.000000	20.086006
5740.000000	20.121271
5738.000000	20.158433
5736.000000	20.196668
5734.000000	20.234312
5732.000000	20.270379
5730.000000	20.307210
5728.000000	20.344877
5726.000000	20.384494
5724.000000	20.423806
5722.000000	20.463077
5720.000000	20.502069
5718.000000	20.542000
5716.000000	20.582182
5714.000000	20.623834
5712.000000	20.664423
5710.000000	20.705146
5708.000000	20.744751
5706.000000	20.784354
5704.000000	20.824293
5702.000000	20.865466
5700.000000	20.907615
5698.000000	20.950344
5696.000000	20.992516
5694.000000	21.034754
5692.000000	21.076199
5690.000000	21.118334
5688.000000	21.160748
5686.000000	21.203095
5684.000000	21.245820
5682.000000	21.288726
5680.000000	21.331714
5678.000000	21.374812
5676.000000	21.416817
5674.000000	21.459136
5672.000000	21.500754
5670.000000	21.543071
5668.000000	21.586101
5666.000000	21.628573
5664.000000	21.668975
5662.000000	21.710425
5660.000000	21.753256
5658.000000	21.796725
5656.000000	21.839124
5654.000000	21.880746
5652.000000	21.921867
5650.000000	21.964665
5648.000000	22.009073
5646.000000	22.053722
5644.000000	22.096740
5642.000000	22.138720
5640.000000	22.181110
5638.000000	22.224052
5636.000000	22.265141
5634.000000	22.307771
5632.000000	22.350219
5630.000000	22.393121
5628.000000	22.435595
5626.000000	22.478989
5624.000000	22.521712
5622.000000	22.563928
5620.000000	22.604654
5618.000000	22.646526
5616.000000	22.688665
5614.000000	22.731220
5612.000000	22.773041
5610.000000	22.816031
5608.000000	22.858979
5606.000000	22.902738
5604.000000	22.945919
5602.000000	22.988422
5600.000000	23.030766
5598.000000	23.074525
5596.000000	23.118767
5594.000000	23.163520
5592.000000	23.206565
5590.000000	23.250437
5588.000000	23.293178
5586.000000	23.335911
5584.000000	23.378231
5582.000000	23.422402
5580.000000	23.467187
5578.000000	23.512067
5576.000000	23.555836
5574.000000	23.599729
5572.000000	23.644740
5570.000000	23.691089
5568.000000	23.735577
5566.000000	23.781466
5564.000000	23.826786
5562.000000	23.871956
5560.000000	23.915277
5558.000000	23.959841
5556.000000	24.004677
5554.000000	24.047825
5552.000000	24.090004
5550.000000	24.134332
5548.000000	24.180204
5546.000000	24.226831
5544.000000	24.271818
5542.000000	24.316458
5540.000000	24.358680
5538.000000	24.400595
5536.000000	24.443593
5534.000000	24.490779
5532.000000	24.538886
5530.000000	24.584484
5528.000000	24.627124
5526.000000	24.669868
5524.000000	24.712863
5522.000000	24.757071
5520.000000	24.800360
5518.000000	24.844825
5516.000000	24.889195
5514.000000	24.934583
5512.000000	24.979307
5510.000000	25.022804
5508.000000	25.066163
5506.000000	25.111354
5504.000000	25.156540
5502.000000	25.202233
5500.000000	25.247525
5498.000000	25.291580
5496.000000	25.330961
5494.000000	25.369237
5492.000000	25.410895
5490.000000	25.459894
5488.000000	25.510723
5486.000000	25.561734
5484.000000	25.611328
5482.000000	25.660436
5480.000000	25.702526
5478.000000	25.737775
5476.000000	25.776023
5474.000000	25.825020
5472.000000	25.879347
5470.000000	25.929504
5468.000000	25.974037
5466.000000	26.016107
5464.000000	26.056117
5462.000000	26.100525
5460.000000	26.150337
5458.000000	26.203083
5456.000000	26.254930
5454.000000	26.303041
5452.000000	26.344953
5450.000000	26.380550
5448.000000	26.415675
5446.000000	26.457436
5444.000000	26.502046
5442.000000	26.553788
5440.000000	26.606222
5438.000000	26.652678
5436.000000	26.694562
5434.000000	26.736840
5432.000000	26.778941
5430.000000	26.822490
5428.000000	26.875306
5426.000000	26.939195
5424.000000	27.000463
5422.000000	27.052410
5420.000000	27.096731
5418.000000	27.128962
5416.000000	27.151151
5414.000000	27.178994
5412.000000	27.224178
5410.000000	27.287182
5408.000000	27.352918
5406.000000	27.413095
5404.000000	27.465415
5402.000000	27.514430
5400.000000	27.556780
5398.000000	27.589714
5396.000000	27.619413
5394.000000	27.664430
5392.000000	27.723940
5390.000000	27.782397
5388.000000	27.826374
5386.000000	27.869294
5384.000000	27.921864
5382.000000	27.976192
5380.000000	28.013773
5378.000000	28.046408
5376.000000	28.092704
5374.000000	28.158436
5372.000000	28.224224
5370.000000	28.279723
5368.000000	28.325984
5366.000000	28.369472
5364.000000	28.416069
5362.000000	28.468465
5360.000000	28.520038
5358.000000	28.558380
5356.000000	28.584206
5354.000000	28.618687
5352.000000	28.669284
5350.000000	28.723901
5348.000000	28.760010
5346.000000	28.791403
5344.000000	28.835664
5342.000000	28.886378
5340.000000	28.933594
5338.000000	28.984475
5336.000000	29.048537
5334.000000	29.115040
5332.000000	29.167192
5330.000000	29.208858
5328.000000	29.253647
5326.000000	29.309408
5324.000000	29.371455
5322.000000	29.427194
5320.000000	29.474774
5318.000000	29.521528
5316.000000	29.569542
5314.000000	29.618867
5312.000000	29.662167
5310.000000	29.700583
5308.000000	29.742418
5306.000000	29.794638
5304.000000	29.850720
5302.000000	29.902271
5300.000000	29.950466
5298.000000	30.001469
5296.000000	30.051826
5294.000000	30.094168
5292.000000	30.132574
5290.000000	30.179582
5288.000000	30.233030
5286.000000	30.286389
5284.000000	30.336483
5282.000000	30.390178
5280.000000	30.444162
5278.000000	30.498098
5276.000000	30.551726
5274.000000	30.602494
5272.000000	30.646794
5270.000000	30.687871
5268.000000	30.723252
5266.000000	30.755593
5264.000000	30.795782
5262.000000	30.855074
5260.000000	30.921209
5258.000000	30.973955
5256.000000	31.017983
5254.000000	31.066480
5252.000000	31.114403
5250.000000	31.154862
5248.000000	31.194429
5246.000000	31.247524
5244.000000	31.311020
5242.000000	31.375534
5240.000000	31.434899
5238.000000	31.486778
5236.000000	31.533004
5234.000000	31.577531
5232.000000	31.623041
5230.000000	31.667547
5228.000000	31.707473
5226.000000	31.751342
5224.000000	31.805011
5222.000000	31.865181
5220.000000	31.921704
5218.000000	31.976057
5216.000000	32.029593
5214.000000	32.080759
5212.000000	32.121631
5210.000000	32.150785
5208.000000	32.181161
5206.000000	32.234087
5204.000000	32.306564
5202.000000	32.376134
5200.000000	32.427263
5198.000000	32.474093
5196.000000	32.526498
5194.000000	32.583386
5192.000000	32.636502
5190.000000	32.686402
5188.000000	32.733363
5186.000000	32.781397
5184.000000	32.833155
5182.000000	32.888724
5180.000000	32.944076
5178.000000	32.999346
5176.000000	33.053527
5174.000000	33.105424
5172.000000	33.155497
5170.000000	33.208428
5168.000000	33.260433
5166.000000	33.310934
5164.000000	33.360959
5162.000000	33.414452
5160.000000	33.467304
5158.000000	33.518673
5156.000000	33.569986
5154.000000	33.624126
5152.000000	33.679174
5150.000000	33.733816
5148.000000	33.786146
5146.000000	33.837069
5144.000000	33.886023
5142.000000	33.936941
5140.000000	33.989335
5138.000000	34.043998
5136.000000	34.096478
5134.000000	34.147610
5132.000000	34.197527
5130.000000	34.249792
5128.000000	34.303384
5126.000000	34.357081
5124.000000	34.408443
5122.000000	34.459527
5120.000000	34.509697
5118.000000	34.561641
5116.000000	34.613711
5114.000000	34.667040
5112.000000	34.720206
5110.000000	34.773257
5108.000000	34.825051
5106.000000	34.877965
5104.000000	34.930253
5102.000000	34.983061
5100.000000	35.035618
5098.000000	35.089886
5096.000000	35.143806
5094.000000	35.199169
5092.000000	35.254313
5090.000000	35.308458
5088.000000	35.361470
5086.000000	35.415859
5084.000000	35.470876
5082.000000	35.526716
5080.000000	35.580995
5078.000000	35.635183
5076.000000	35.689217
5074.000000	35.744285
5072.000000	35.797666
5070.000000	35.850868
5068.000000	35.905147
5066.000000	35.960624
5064.000000	36.014867
5062.000000	36.069669
5060.000000	36.124612
5058.000000	36.178944
5056.000000	36.230908
5054.000000	36.284892
5052.000000	36.340466
5050.000000	36.397058
5048.000000	36.450255
5046.000000	36.501751
5044.000000	36.554102
5042.000000	36.611256
5040.000000	36.668192
5038.000000	36.722382
5036.000000	36.773044
5034.000000	36.825010
5032.000000	36.878474
5030.000000	36.932601
5028.000000	36.984344
5026.000000	37.037045
5024.000000	37.091149
5022.000000	37.145877
5020.000000	37.199371
5018.000000	37.253527
5016.000000	37.307942
5014.000000	37.362756
5012.000000	37.418042
5010.000000	37.475109
5008.000000	37.531251
5006.000000	37.585505
5004.000000	37.638361
5002.000000	37.693529
5000.000000	37.750211
4998.000000	37.808438
4996.000000	37.865412
4994.000000	37.921200
4992.000000	37.975896
4990.000000	38.031928
4988.000000	38.087213
4986.000000	38.143629
4984.000000	38.200841
4982.000000	38.258720
4980.000000	38.314486
4978.000000	38.370127
4976.000000	38.425388
4974.000000	38.481772
4972.000000	38.537574
4970.000000	38.593111
4968.000000	38.648332
4966.000000	38.705216
4964.000000	38.761105
4962.000000	38.816061
4960.000000	38.870028
4958.000000	38.925247
4956.000000	38.980801
4954.000000	39.036877
4952.000000	39.091358
4950.000000	39.146651
4948.000000	39.203028
4946.000000	39.259023
4944.000000	39.312208
4942.000000	39.366388
4940.000000	39.421470
4938.000000	39.477171
4936.000000	39.532130
4934.000000	39.588374
4932.000000	39.644378
4930.000000	39.699811
4928.000000	39.753236
4926.000000	39.806910
4924.000000	39.860750
4922.000000	39.915758
4920.000000	39.970342
4918.000000	40.026441
4916.000000	40.083568
4914.000000	40.140874
4912.000000	40.195538
4910.000000	40.250976
4908.000000	40.308252
4906.000000	40.366281
4904.000000	40.421580
4902.000000	40.478007
4900.000000	40.535013
4898.000000	40.593144
4896.000000	40.651306
4894.000000	40.709548
4892.000000	40.766051
4890.000000	40.823313
4888.000000	40.881132
4886.000000	40.939214
4884.000000	40.996985
4882.000000	41.056800
4880.000000	41.115400
4878.000000	41.171831
4876.000000	41.226630
4874.000000	41.284405
4872.000000	41.342501
4870.000000	41.400072
4868.000000	41.455823
4866.000000	41.512545
4864.000000	41.567862
4862.000000	41.624420
4860.000000	41.680138
4858.000000	41.737537
4856.000000	41.795237
4854.000000	41.853456
4852.000000	41.909720
4850.000000	41.967464
4848.000000	42.024579
4846.000000	42.079648
4844.000000	42.133164
4842.000000	42.188740
4840.000000	42.245140
4838.000000	42.302625
4836.000000	42.359749
4834.000000	42.416717
4832.000000	42.471067
4830.000000	42.525684
4828.000000	42.582507
4826.000000	42.641283
4824.000000	42.697812
4822.000000	42.753946
4820.000000	42.810728
4818.000000	42.867514
4816.000000	42.922959
4814.000000	42.979786
4812.000000	43.037735
4810.000000	43.096071
4808.000000	43.153074
4806.000000	43.211343
4804.000000	43.270290
4802.000000	43.330079
4800.000000	43.389489
4798.000000	43.448571
4796.000000	43.506360
4794.000000	43.566136
4792.000000	43.626237
4790.000000	43.685605
4788.000000	43.743114
4786.000000	43.801337
4784.000000	43.859209
4782.000000	43.918308
4780.000000	43.976394
4778.000000	44.034096
4776.000000	44.091399
4774.000000	44.150607
4772.000000	44.209813
4770.000000	44.270010
4768.000000	44.328989
4766.000000	44.386693
4764.000000	44.443145
4762.000000	44.501035
4760.000000	44.558295
4758.000000	44.615376
4756.000000	44.671701
4754.000000	44.729232
4752.000000	44.785805
4750.000000	44.842526
4748.000000	44.896994
4746.000000	44.952271
4744.000000	45.009735
4742.000000	45.068875
4740.000000	45.124271
4738.000000	45.178022
4736.000000	45.233170
4734.000000	45.290486
4732.000000	45.348315
4730.000000	45.407877
4728.000000	45.467507
4726.000000	45.526797
4724.000000	45.584198
4722.000000	45.641374
4720.000000	45.698974
4718.000000	45.758474
4716.000000	45.817469
4714.000000	45.877709
4712.000000	45.938611
4710.000000	46.000336
4708.000000	46.061202
4706.000000	46.123427
4704.000000	46.185016
4702.000000	46.247645
4700.000000	46.311873
4698.000000	46.375956
4696.000000	46.434788
4694.000000	46.492164
4692.000000	46.551140
4690.000000	46.612056
4688.000000	46.672022
4686.000000	46.732690
4684.000000	46.792618
4682.000000	46.852012
4680.000000	46.911286
4678.000000	46.972513
4676.000000	47.031185
4674.000000	47.088160
4672.000000	47.147283
4670.000000	47.210454
4668.000000	47.273200
4666.000000	47.334028
4664.000000	47.391811
4662.000000	47.450085
4660.000000	47.510269
4658.000000	47.571456
4656.000000	47.631754
4654.000000	47.693013
4652.000000	47.753402
4650.000000	47.813572
4648.000000	47.872759
4646.000000	47.933993
4644.000000	47.995133
4642.000000	48.054861
4640.000000	48.112221
4638.000000	48.172491
4636.000000	48.233462
4634.000000	48.293180
4632.000000	48.351291
4630.000000	48.410208
4628.000000	48.470337
4626.000000	48.533094
4624.000000	48.595080
4622.000000	48.656408
4620.000000	48.717940
4618.000000	48.779291
4616.000000	48.838352
4614.000000	48.899326
4612.000000	48.962045
4610.000000	49.026369
4608.000000	49.089933
4606.000000	49.153476
4604.000000	49.217232
4602.000000	49.282896
4600.000000	49.347208
4598.000000	49.410675
4596.000000	49.473581
4594.000000	49.536718
4592.000000	49.598379
4590.000000	49.660578
4588.000000	49.723373
4586.000000	49.787310
4584.000000	49.850669
4582.000000	49.914353
4580.000000	49.976965
4578.000000	50.040588
4576.000000	50.103798
4574.000000	50.167314
4572.000000	50.228992
4570.000000	50.290976
4568.000000	50.352808
4566.000000	50.416492
4564.000000	50.479082
4562.000000	50.541320
4560.000000	50.603756
4558.000000	50.667972
4556.000000	50.729386
4554.000000	50.788774
4552.000000	50.849054
4550.000000	50.912552
4548.000000	50.975741
4546.000000	51.037556
4544.000000	51.097016
4542.000000	51.158367
4540.000000	51.220732
4538.000000	51.282696
4536.000000	51.343363
4534.000000	51.406788
4532.000000	51.469840
4530.000000	51.531495
4528.000000	51.591765
4526.000000	51.654192
4524.000000	51.717512
4522.000000	51.781175
4520.000000	51.843555
4518.000000	51.906665
4516.000000	51.969788
4514.000000	52.033165
4512.000000	52.096124
4510.000000	52.161081
4508.000000	52.225855
4506.000000	52.290314
4504.000000	52.354378
4502.000000	52.419132
4500.000000	52.483840
4498.000000	52.549682
4496.000000	52.612797
4494.000000	52.675872
4492.000000	52.741793
4490.000000	52.809184
4488.000000	52.873715
4486.000000	52.937385
4484.000000	52.999271
4482.000000	53.061538
4480.000000	53.124390
4478.000000	53.188765
4476.000000	53.252136
4474.000000	53.314993
4472.000000	53.375401
4470.000000	53.436622
4468.000000	53.499398
4466.000000	53.564178
4464.000000	53.627254
4462.000000	53.688607
4460.000000	53.748485
4458.000000	53.811164
4456.000000	53.874411
4454.000000	53.934998
4452.000000	53.993150
4450.000000	54.054456
4448.000000	54.116879
4446.000000	54.178367
4444.000000	54.237847
4442.000000	54.299250
4440.000000	54.362150
4438.000000	54.424680
4436.000000	54.485167
4434.000000	54.547716
4432.000000	54.610537
4430.000000	54.673139
4428.000000	54.734258
4426.000000	54.796472
4424.000000	54.859208
4422.000000	54.923746
4420.000000	54.986482
4418.000000	55.048872
4416.000000	55.112658
4414.000000	55.178530
4412.000000	55.241329
4410.000000	55.303966
4408.000000	55.367385
4406.000000	55.432625
4404.000000	55.497871
4402.000000	55.562379
4400.000000	55.624625
4398.000000	55.687286
4396.000000	55.749132
4394.000000	55.810393
4392.000000	55.872123
4390.000000	55.936791
4388.000000	56.000226
4386.000000	56.061291
4384.000000	56.121613
4382.000000	56.183032
4380.000000	56.241520
4378.000000	56.299833
4376.000000	56.359902
4374.000000	56.420942
4372.000000	56.479496
4370.000000	56.537761
4368.000000	56.595782
4366.000000	56.656597
4364.000000	56.717915
4362.000000	56.778955
4360.000000	56.839697
4358.000000	56.902158
4356.000000	56.963083
4354.000000	57.023478
4352.000000	57.084666
4350.000000	57.148362
4348.000000	57.210636
4346.000000	57.273395
4344.000000	57.337793
4342.000000	57.402668
4340.000000	57.464079
4338.000000	57.524810
4336.000000	57.586302
4334.000000	57.649543
4332.000000	57.712793
4330.000000	57.776974
4328.000000	57.840591
4326.000000	57.905892
4324.000000	57.972331
4322.000000	58.039080
4320.000000	58.105522
4318.000000	58.173889
4316.000000	58.240843
4314.000000	58.306580
4312.000000	58.372364
4310.000000	58.439049
4308.000000	58.505205
4306.000000	58.572855
4304.000000	58.639314
4302.000000	58.703959
4300.000000	58.767399
4298.000000	58.831664
4296.000000	58.896629
4294.000000	58.963381
4292.000000	59.028593
4290.000000	59.091559
4288.000000	59.151199
4286.000000	59.210678
4284.000000	59.271297
4282.000000	59.333944
4280.000000	59.395584
4278.000000	59.455957
4276.000000	59.513568
4274.000000	59.571236
4272.000000	59.630138
4270.000000	59.689962
4268.000000	59.747513
4266.000000	59.805692
4264.000000	59.865317
4262.000000	59.927581
4260.000000	59.990765
4258.000000	60.054152
4256.000000	60.115728
4254.000000	60.177110
4252.000000	60.239324
4250.000000	60.304612
4248.000000	60.369653
4246.000000	60.433712
4244.000000	60.495686
4242.000000	60.557911
4240.000000	60.622018
4238.000000	60.687986
4236.000000	60.751938
4234.000000	60.814782
4232.000000	60.876631
4230.000000	60.940688
4228.000000	61.006000
4226.000000	61.071118
4224.000000	61.134304
4222.000000	61.196932
4220.000000	61.260221
4218.000000	61.325874
4216.000000	61.390052
4214.000000	61.453495
4212.000000	61.517391
4210.000000	61.582923
4208.000000	61.649495
4206.000000	61.716886
4204.000000	61.781757
4202.000000	61.847508
4200.000000	61.915311
4198.000000	61.984327
4196.000000	62.052033
4194.000000	62.120113
4192.000000	62.188680
4190.000000	62.257593
4188.000000	62.324759
4186.000000	62.392018
4184.000000	62.457580
4182.000000	62.523312
4180.000000	62.589184
4178.000000	62.654772
4176.000000	62.719816
4174.000000	62.785938
4172.000000	62.849945
4170.000000	62.912926
4168.000000	62.975445
4166.000000	63.038633
4164.000000	63.101324
4162.000000	63.165723
4160.000000	63.230476
4158.000000	63.294541
4156.000000	63.356927
4154.000000	63.419724
4152.000000	63.482553
4150.000000	63.547934
4148.000000	63.614428
4146.000000	63.680080
4144.000000	63.743211
4142.000000	63.806738
4140.000000	63.870967
4138.000000	63.936498
4136.000000	64.001429
4134.000000	64.067691
4132.000000	64.134017
4130.000000	64.200035
4128.000000	64.265583
4126.000000	64.331646
4124.000000	64.396993
4122.000000	64.463167
4120.000000	64.528801
4118.000000	64.594965
4116.000000	64.660784
4114.000000	64.727258
4112.000000	64.792452
4110.000000	64.855917
4108.000000	64.917189
4106.000000	64.979745
4104.000000	65.043848
4102.000000	65.109062
4100.000000	65.173703
4098.000000	65.238751
4096.000000	65.303227
4094.000000	65.367966
4092.000000	65.431113
4090.000000	65.495582
4088.000000	65.563716
4086.000000	65.635595
4084.000000	65.706421
4082.000000	65.774287
4080.000000	65.840622
4078.000000	65.908276
4076.000000	65.974006
4074.000000	66.038852
4072.000000	66.103955
4070.000000	66.169648
4068.000000	66.234076
4066.000000	66.298482
4064.000000	66.362155
4062.000000	66.425406
4060.000000	66.489350
4058.000000	66.556143
4056.000000	66.621936
4054.000000	66.685741
4052.000000	66.748542
4050.000000	66.812979
4048.000000	66.875472
4046.000000	66.936037
4044.000000	67.000297
4042.000000	67.070160
4040.000000	67.138895
4038.000000	67.205712
4036.000000	67.271735
4034.000000	67.339501
4032.000000	67.406798
4030.000000	67.471070
4028.000000	67.532434
4026.000000	67.597914
4024.000000	67.668837
4022.000000	67.739135
4020.000000	67.806384
4018.000000	67.875927
4016.000000	67.945207
4014.000000	68.013105
4012.000000	68.079056
4010.000000	68.144554
4008.000000	68.212693
4006.000000	68.284588
4004.000000	68.355546
4002.000000	68.424890
4000.000000	68.491637
3998.000000	68.554675
3996.000000	68.615130
3994.000000	68.677497
3992.000000	68.741111
3990.000000	68.808606
3988.000000	68.877940
3986.000000	68.943027
3984.000000	69.003373
3982.000000	69.066369
3980.000000	69.129536
3978.000000	69.186575
3976.000000	69.239657
3974.000000	69.298328
3972.000000	69.361896
3970.000000	69.428731
3968.000000	69.498122
3966.000000	69.560676
3964.000000	69.608243
3962.000000	69.659273
3960.000000	69.724481
3958.000000	69.793042
3956.000000	69.856425
3954.000000	69.908760
3952.000000	69.938514
3950.000000	69.964433
3948.000000	70.022563
3946.000000	70.089184
3944.000000	70.131677
3942.000000	70.206281
3940.000000	70.322555
3938.000000	70.415724
3936.000000	70.444475
3934.000000	70.424633
3932.000000	70.448613
3930.000000	70.560089
3928.000000	70.660513
3926.000000	70.704040
3924.000000	70.755148
3922.000000	70.805309
3920.000000	70.800469
3918.000000	70.821111
3916.000000	70.968268
3914.000000	71.165356
3912.000000	71.294290
3910.000000	71.343982
3908.000000	71.259737
3906.000000	71.009133
3904.000000	70.792935
3902.000000	70.798987
3900.000000	71.019496
3898.000000	71.371294
3896.000000	71.628231
3894.000000	71.591692
3892.000000	71.486268
3890.000000	71.558149
3888.000000	71.546508
3886.000000	71.468851
3884.000000	71.610311
3882.000000	71.774238
3880.000000	71.913255
3878.000000	72.099343
3876.000000	72.138429
3874.000000	72.002516
3872.000000	71.741137
3870.000000	71.643573
3868.000000	71.866299
3866.000000	72.046099
3864.000000	72.169176
3862.000000	72.416965
3860.000000	72.623556
3858.000000	72.339840
3856.000000	71.318258
3854.000000	70.594961
3852.000000	71.214240
3850.000000	72.403085
3848.000000	73.062282
3846.000000	73.147653
3844.000000	73.024925
3842.000000	72.800523
3840.000000	72.382309
3838.000000	72.172856
3836.000000	72.531864
3834.000000	73.015937
3832.000000	73.310439
3830.000000	73.528429
3828.000000	73.660963
3826.000000	73.674247
3824.000000	73.439346
3822.000000	73.141237
3820.000000	73.143308
3818.000000	73.123742
3816.000000	73.187730
3814.000000	73.742147
3812.000000	74.236544
3810.000000	74.160718
3808.000000	73.845593
3806.000000	73.806199
3804.000000	73.710020
3802.000000	73.500710
3800.000000	73.796902
3798.000000	74.300059
3796.000000	74.604269
3794.000000	74.846944
3792.000000	75.016644
3790.000000	75.093226
3788.000000	75.116962
3786.000000	75.125732
3784.000000	75.153922
3782.000000	75.138891
3780.000000	75.118720
3778.000000	75.248436
3776.000000	75.437140
3774.000000	75.480222
3772.000000	75.331557
3770.000000	75.225551
3768.000000	75.312974
3766.000000	75.470973
3764.000000	75.614224
3762.000000	75.621729
3760.000000	75.545370
3758.000000	75.587808
3756.000000	75.493564
3754.000000	74.887099
3752.000000	74.212916
3750.000000	74.216360
3748.000000	74.483575
3746.000000	74.265618
3744.000000	74.425801
3742.000000	75.371205
3740.000000	75.881666
3738.000000	75.628007
3736.000000	75.366209
3734.000000	75.466523
3732.000000	75.843948
3730.000000	76.300437
3728.000000	76.509806
3726.000000	76.538430
3724.000000	76.607311
3722.000000	76.730168
3720.000000	76.894035
3718.000000	77.038441
3716.000000	76.974726
3714.000000	76.589812
3712.000000	76.323698
3710.000000	76.577181
3708.000000	77.063669
3706.000000	77.360045
3704.000000	77.361974
3702.000000	77.329017
3700.000000	77.480162
3698.000000	77.659759
3696.000000	77.713020
3694.000000	77.572870
3692.000000	77.139465
3690.000000	76.643796
3688.000000	76.759209
3686.000000	77.453725
3684.000000	77.937442
3682.000000	77.995696
3680.000000	77.751035
3678.000000	77.140879
3676.000000	76.687306
3674.000000	76.854848
3672.000000	76.988260
3670.000000	77.121638
3668.000000	77.702627
3666.000000	78.251368
3664.000000	78.458632
3662.000000	78.492767
3660.000000	78.389214
3658.000000	78.120321
3656.000000	78.015331
3654.000000	78.037568
3652.000000	77.641587
3650.000000	77.172531
3648.000000	77.383257
3646.000000	78.048781
3644.000000	78.523840
3642.000000	78.685624
3640.000000	78.724858
3638.000000	78.728768
3636.000000	78.686297
3634.000000	78.560673
3632.000000	78.136768
3630.000000	77.588266
3628.000000	77.716629
3626.000000	78.368722
3624.000000	78.695865
3622.000000	78.524506
3620.000000	78.263263
3618.000000	78.306688
3616.000000	78.463048
3614.000000	78.452084
3612.000000	78.355164
3610.000000	78.286180
3608.000000	78.405633
3606.000000	78.680438
3604.000000	78.835603
3602.000000	78.827201
3600.000000	78.793035
3598.000000	78.762453
3596.000000	78.721483
3594.000000	78.736070
3592.000000	78.725098
3590.000000	78.528010
3588.000000	78.364291
3586.000000	78.505959
3584.000000	78.757330
3582.000000	78.874459
3580.000000	78.887381
3578.000000	78.883249
3576.000000	78.881800
3574.000000	78.882807
3572.000000	78.827633
3570.000000	78.619552
3568.000000	78.405561
3566.000000	78.452159
3564.000000	78.654618
3562.000000	78.777277
3560.000000	78.820288
3558.000000	78.845268
3556.000000	78.834517
3554.000000	78.784581
3552.000000	78.757570
3550.000000	78.745556
3548.000000	78.682443
3546.000000	78.635483
3544.000000	78.679881
3542.000000	78.752961
3540.000000	78.776365
3538.000000	78.750401
3536.000000	78.724595
3534.000000	78.717324
3532.000000	78.686301
3530.000000	78.620418
3528.000000	78.559138
3526.000000	78.517710
3524.000000	78.489536
3522.000000	78.486811
3520.000000	78.490046
3518.000000	78.476498
3516.000000	78.449851
3514.000000	78.406647
3512.000000	78.344275
3510.000000	78.287090
3508.000000	78.254335
3506.000000	78.199575
3504.000000	78.115739
3502.000000	78.073036
3500.000000	78.063869
3498.000000	78.029521
3496.000000	77.978259
3494.000000	77.934256
3492.000000	77.888184
3490.000000	77.831562
3488.000000	77.777888
3486.000000	77.737811
3484.000000	77.695849
3482.000000	77.657798
3480.000000	77.649606
3478.000000	77.658089
3476.000000	77.660210
3474.000000	77.664887
3472.000000	77.675365
3470.000000	77.682408
3468.000000	77.696244
3466.000000	77.728309
3464.000000	77.766928
3462.000000	77.806168
3460.000000	77.851302
3458.000000	77.894645
3456.000000	77.930819
3454.000000	77.961723
3452.000000	77.983574
3450.000000	77.985221
3448.000000	77.979152
3446.000000	78.006217
3444.000000	78.061849
3442.000000	78.125027
3440.000000	78.199682
3438.000000	78.285430
3436.000000	78.386017
3434.000000	78.507634
3432.000000	78.645072
3430.000000	78.786163
3428.000000	78.928354
3426.000000	79.065035
3424.000000	79.184149
3422.000000	79.287756
3420.000000	79.397520
3418.000000	79.515713
3416.000000	79.618929
3414.000000	79.698664
3412.000000	79.767529
3410.000000	79.833728
3408.000000	79.896594
3406.000000	79.955034
3404.000000	80.004784
3402.000000	80.048958
3400.000000	80.106187
3398.000000	80.184206
3396.000000	80.265414
3394.000000	80.332133
3392.000000	80.397116
3390.000000	80.480776
3388.000000	80.565196
3386.000000	80.631586
3384.000000	80.691237
3382.000000	80.751116
3380.000000	80.808059
3378.000000	80.861266
3376.000000	80.913796
3374.000000	80.963474
3372.000000	81.001504
3370.000000	81.029213
3368.000000	81.068252
3366.000000	81.122344
3364.000000	81.178368
3362.000000	81.229793
3360.000000	81.278113
3358.000000	81.323810
3356.000000	81.368415
3354.000000	81.413747
3352.000000	81.455235
3350.000000	81.498084
3348.000000	81.547671
3346.000000	81.593573
3344.000000	81.634390
3342.000000	81.675724
3340.000000	81.714333
3338.000000	81.750884
3336.000000	81.795806
3334.000000	81.846690
3332.000000	81.894340
3330.000000	81.934639
3328.000000	81.967789
3326.000000	82.002595
3324.000000	82.045949
3322.000000	82.090835
3320.000000	82.132303
3318.000000	82.170261
3316.000000	82.204972
3314.000000	82.238762
3312.000000	82.271399
3310.000000	82.296450
3308.000000	82.318598
3306.000000	82.349084
3304.000000	82.398672
3302.000000	82.455764
3300.000000	82.500911
3298.000000	82.536602
3296.000000	82.569537
3294.000000	82.600063
3292.000000	82.634447
3290.000000	82.679947
3288.000000	82.728967
3286.000000	82.772860
3284.000000	82.813870
3282.000000	82.853128
3280.000000	82.890921
3278.000000	82.926801
3276.000000	82.960923
3274.000000	82.996297
3272.000000	83.035210
3270.000000	83.082240
3268.000000	83.137585
3266.000000	83.188341
3264.000000	83.233460
3262.000000	83.278084
3260.000000	83.323304
3258.000000	83.366813
3256.000000	83.409855
3254.000000	83.457542
3252.000000	83.511447
3250.000000	83.561786
3248.000000	83.604604
3246.000000	83.649048
3244.000000	83.704808
3242.000000	83.762524
3240.000000	83.816137
3238.000000	83.866092
3236.000000	83.914048
3234.000000	83.959216
3232.000000	84.010382
3230.000000	84.068260
3228.000000	84.125001
3226.000000	84.179220
3224.000000	84.230149
3222.000000	84.276718
3220.000000	84.324231
3218.000000	84.375562
3216.000000	84.427077
3214.000000	84.477531
3212.000000	84.530029
3210.000000	84.585245
3208.000000	84.647259
3206.000000	84.713682
3204.000000	84.782624
3202.000000	84.853679
3200.000000	84.923080
3198.000000	84.992603
3196.000000	85.070402
3194.000000	85.148885
3192.000000	85.223196
3190.000000	85.295818
3188.000000	85.368587
3186.000000	85.440391
3184.000000	85.512629
3182.000000	85.586527
3180.000000	85.656854
3178.000000	85.725189
3176.000000	85.801991
3174.000000	85.880477
3172.000000	85.957096
3170.000000	86.032505
3168.000000	86.107614
3166.000000	86.183146
3164.000000	86.261246
3162.000000	86.340458
3160.000000	86.420260
3158.000000	86.500329
3156.000000	86.579217
3154.000000	86.649991
3152.000000	86.723143
3150.000000	86.809339
3148.000000	86.896724
3146.000000	86.978095
3144.000000	87.055755
3142.000000	87.126863
3140.000000	87.194842
3138.000000	87.266941
3136.000000	87.339861
3134.000000	87.406842
3132.000000	87.478061
3130.000000	87.549759
3128.000000	87.614705
3126.000000	87.676864
3124.000000	87.735700
3122.000000	87.786392
3120.000000	87.834176
3118.000000	87.883171
3116.000000	87.940816
3114.000000	88.011800
3112.000000	88.079306
3110.000000	88.131451
3108.000000	88.184404
3106.000000	88.246844
3104.000000	88.309142
3102.000000	88.366186
3100.000000	88.429676
3098.000000	88.498840
3096.000000	88.567883
3094.000000	88.638405
3092.000000	88.706893
3090.000000	88.767738
3088.000000	88.825932
3086.000000	88.879936
3084.000000	88.929288
3082.000000	88.971721
3080.000000	89.009142
3078.000000	89.051882
3076.000000	89.101911
3074.000000	89.141182
3072.000000	89.162985
3070.000000	89.171963
3068.000000	89.177506
3066.000000	89.196855
3064.000000	89.238748
3062.000000	89.292638
3060.000000	89.349802
3058.000000	89.405224
3056.000000	89.465840
3054.000000	89.532058
3052.000000	89.593059
3050.000000	89.646440
3048.000000	89.699135
3046.000000	89.743055
3044.000000	89.775967
3042.000000	89.804162
3040.000000	89.833211
3038.000000	89.856057
3036.000000	89.867392
3034.000000	89.868469
3032.000000	89.861605
3030.000000	89.839300
3028.000000	89.783194
3026.000000	89.681118
3024.000000	89.557963
3022.000000	89.447832
3020.000000	89.385721
3018.000000	89.412468
3016.000000	89.550113
3014.000000	89.781640
3012.000000	90.065073
3010.000000	90.343642
3008.000000	90.572515
3006.000000	90.734351
3004.000000	90.846945
3002.000000	90.929505
3000.000000	90.990692
2998.000000	91.034205
2996.000000	91.065713
2994.000000	91.087241
2992.000000	91.100756
2990.000000	91.103232
2988.000000	91.093259
2986.000000	91.064824
2984.000000	91.010827
2982.000000	90.926944
2980.000000	90.811762
2978.000000	90.654305
2976.000000	90.436875
2974.000000	90.138459
2972.000000	89.753417
2970.000000	89.285064
2968.000000	88.773915
2966.000000	88.299654
2964.000000	87.951519
2962.000000	87.784713
2960.000000	87.802259
2958.000000	87.945456
2956.000000	88.137410
2954.000000	88.320045
2952.000000	88.464325
2950.000000	88.540417
2948.000000	88.510318
2946.000000	88.353034
2944.000000	88.068438
2942.000000	87.668186
2940.000000	87.187208
2938.000000	86.684980
2936.000000	86.222905
2934.000000	85.812785
2932.000000	85.424132
2930.000000	85.043012
2928.000000	84.723482
2926.000000	84.564145
2924.000000	84.670751
2922.000000	85.084718
2920.000000	85.753400
2918.000000	86.560273
2916.000000	87.399418
2914.000000	88.187879
2912.000000	88.870832
2910.000000	89.419628
2908.000000	89.846329
2906.000000	90.191875
2904.000000	90.491861
2902.000000	90.763790
2900.000000	91.017117
2898.000000	91.253610
2896.000000	91.479018
2894.000000	91.694508
2892.000000	91.898231
2890.000000	92.083956
2888.000000	92.246456
2886.000000	92.376192
2884.000000	92.466574
2882.000000	92.513672
2880.000000	92.515220
2878.000000	92.463586
2876.000000	92.354920
2874.000000	92.182114
2872.000000	91.937458
2870.000000	91.590480
2868.000000	91.116424
2866.000000	90.553778
2864.000000	90.022353
2862.000000	89.675320
2860.000000	89.603135
2858.000000	89.769801
2856.000000	90.070577
2854.000000	90.424799
2852.000000	90.832262
2850.000000	91.333879
2848.000000	91.932628
2846.000000	92.545928
2844.000000	93.084349
2842.000000	93.513354
2840.000000	93.848636
2838.000000	94.117844
2836.000000	94.339928
2834.000000	94.521920
2832.000000	94.678212
2830.000000	94.814158
2828.000000	94.935371
2826.000000	95.045430
2824.000000	95.149401
2822.000000	95.245826
2820.000000	95.333558
2818.000000	95.411249
2816.000000	95.483804
2814.000000	95.549072
2812.000000	95.607909
2810.000000	95.661999
2808.000000	95.714393
2806.000000	95.764485
2804.000000	95.814391
2802.000000	95.859627
2800.000000	95.903197
2798.000000	95.945909
2796.000000	95.989596
2794.000000	96.033228
2792.000000	96.082109
2790.000000	96.139161
2788.000000	96.211171
2786.000000	96.293668
2784.000000	96.379171
2782.000000	96.460097
2780.000000	96.536745
2778.000000	96.605139
2776.000000	96.666410
2774.000000	96.724457
2772.000000	96.783444
2770.000000	96.838413
2768.000000	96.890432
2766.000000	96.940200
2764.000000	96.990432
2762.000000	97.036202
2760.000000	97.082271
2758.000000	97.130114
2756.000000	97.176365
2754.000000	97.218407
2752.000000	97.259487
2750.000000	97.298891
2748.000000	97.339898
2746.000000	97.379860
2744.000000	97.416636
2742.000000	97.450166
2740.000000	97.488106
2738.000000	97.523587
2736.000000	97.558118
2734.000000	97.594187
2732.000000	97.632442
2730.000000	97.666464
2728.000000	97.700367
2726.000000	97.732860
2724.000000	97.765497
2722.000000	97.797450
2720.000000	97.830332
2718.000000	97.862643
2716.000000	97.896484
2714.000000	97.926898
2712.000000	97.953824
2710.000000	97.977643
2708.000000	98.002616
2706.000000	98.029669
2704.000000	98.064004
2702.000000	98.102839
2700.000000	98.147623
2698.000000	98.193684
2696.000000	98.240331
2694.000000	98.285741
2692.000000	98.330229
2690.000000	98.373560
2688.000000	98.416472
2686.000000	98.456459
2684.000000	98.498601
2682.000000	98.538242
2680.000000	98.576361
2678.000000	98.610907
2676.000000	98.644197
2674.000000	98.676818
2672.000000	98.708582
2670.000000	98.739598
2668.000000	98.772180
2666.000000	98.802661
2664.000000	98.832792
2662.000000	98.861637
2660.000000	98.891822
2658.000000	98.922763
2656.000000	98.958100
2654.000000	98.994961
2652.000000	99.035979
2650.000000	99.078005
2648.000000	99.119858
2646.000000	99.159856
2644.000000	99.200354
2642.000000	99.237463
2640.000000	99.273020
2638.000000	99.307294
2636.000000	99.342548
2634.000000	99.376054
2632.000000	99.411668
2630.000000	99.443013
2628.000000	99.470209
2626.000000	99.495714
2624.000000	99.526356
2622.000000	99.557107
2620.000000	99.587766
2618.000000	99.614768
2616.000000	99.642434
2614.000000	99.668429
2612.000000	99.693069
2610.000000	99.715730
2608.000000	99.737259
2606.000000	99.755056
2604.000000	99.774208
2602.000000	99.788379
2600.000000	99.800014
2598.000000	99.809746
2596.000000	99.823493
2594.000000	99.838126
2592.000000	99.861519
2590.000000	99.894423
2588.000000	99.937450
2586.000000	99.987271
2584.000000	100.048648
2582.000000	100.114475
2580.000000	100.176927
2578.000000	100.234370
2576.000000	100.289015
2574.000000	100.336667
2572.000000	100.381936
2570.000000	100.421626
2568.000000	100.458686
2566.000000	100.493026
2564.000000	100.528953
2562.000000	100.562845
2560.000000	100.595095
2558.000000	100.622616
2556.000000	100.649043
2554.000000	100.675950
2552.000000	100.706545
2550.000000	100.734490
2548.000000	100.760030
2546.000000	100.782973
2544.000000	100.811109
2542.000000	100.838736
2540.000000	100.867388
2538.000000	100.894902
2536.000000	100.922757
2534.000000	100.947928
2532.000000	100.973960
2530.000000	101.000768
2528.000000	101.030163
2526.000000	101.055599
2524.000000	101.081357
2522.000000	101.105581
2520.000000	101.129658
2518.000000	101.153147
2516.000000	101.178897
2514.000000	101.202658
2512.000000	101.228829
2510.000000	101.252225
2508.000000	101.275053
2506.000000	101.295939
2504.000000	101.316645
2502.000000	101.336985
2500.000000	101.361645
2498.000000	101.387117
2496.000000	101.416195
2494.000000	101.444693
2492.000000	101.473826
2490.000000	101.498075
2488.000000	101.523079
2486.000000	101.549965
2484.000000	101.577498
2482.000000	101.602142
2480.000000	101.629200
2478.000000	101.654171
2476.000000	101.678796
2474.000000	101.701475
2472.000000	101.723726
2470.000000	101.741974
2468.000000	101.760756
2466.000000	101.779856
2464.000000	101.800844
2462.000000	101.818416
2460.000000	101.835978
2458.000000	101.851262
2456.000000	101.868174
2454.000000	101.883457
2452.000000	101.903063
2450.000000	101.922987
2448.000000	101.942092
2446.000000	101.956910
2444.000000	101.974722
2442.000000	101.992167
2440.000000	102.008907
2438.000000	102.023047
2436.000000	102.040057
2434.000000	102.054274
2432.000000	102.066432
2430.000000	102.076578
2428.000000	102.089001
2426.000000	102.102700
2424.000000	102.123445
2422.000000	102.141569
2420.000000	102.157865
2418.000000	102.170921
2416.000000	102.183655
2414.000000	102.195766
2412.000000	102.210086
2410.000000	102.221697
2408.000000	102.235983
2406.000000	102.251142
2404.000000	102.268899
2402.000000	102.282902
2400.000000	102.299220
2398.000000	102.317601
2396.000000	102.337946
2394.000000	102.354412
2392.000000	102.371975
2390.000000	102.387758
2388.000000	102.400662
2386.000000	102.402501
2384.000000	102.389612
2382.000000	102.343579
2380.000000	102.250445
2378.000000	102.098691
2376.000000	101.886773
2374.000000	101.614716
2372.000000	101.301267
2370.000000	100.967105
2368.000000	100.650987
2366.000000	100.387164
2364.000000	100.212380
2362.000000	100.152134
2360.000000	100.223982
2358.000000	100.424833
2356.000000	100.750523
2354.000000	101.175220
2352.000000	101.649839
2350.000000	101.995942
2348.000000	101.979700
2346.000000	101.670287
2344.000000	101.338948
2342.000000	101.099744
2340.000000	100.964834
2338.000000	100.904812
2336.000000	100.903806
2334.000000	100.946277
2332.000000	101.027362
2330.000000	101.141365
2328.000000	101.285639
2326.000000	101.443198
2324.000000	101.606955
2322.000000	101.765559
2320.000000	101.919006
2318.000000	102.061196
2316.000000	102.189234
2314.000000	102.299513
2312.000000	102.397893
2310.000000	102.478307
2308.000000	102.546450
2306.000000	102.600626
2304.000000	102.645742
2302.000000	102.683023
2300.000000	102.717222
2298.000000	102.741930
2296.000000	102.767343
2294.000000	102.788683
2292.000000	102.807154
2290.000000	102.820904
2288.000000	102.835867
2286.000000	102.850388
2284.000000	102.862677
2282.000000	102.865025
2280.000000	102.864225
2278.000000	102.858169
2276.000000	102.853750
2274.000000	102.848093
2272.000000	102.847629
2270.000000	102.844853
2268.000000	102.842374
2266.000000	102.837001
2264.000000	102.834521
2262.000000	102.830952
2260.000000	102.832625
2258.000000	102.835551
2256.000000	102.841607
2254.000000	102.845212
2252.000000	102.850363
2250.000000	102.854581
2248.000000	102.866370
2246.000000	102.878191
2244.000000	102.891611
2242.000000	102.903113
2240.000000	102.916142
2238.000000	102.928252
2236.000000	102.947275
2234.000000	102.965168
2232.000000	102.981923
2230.000000	102.993286
2228.000000	103.006056
2226.000000	103.018843
2224.000000	103.033542
2222.000000	103.041710
2220.000000	103.051271
2218.000000	103.058410
2216.000000	103.068952
2214.000000	103.077555
2212.000000	103.084315
2210.000000	103.088831
2208.000000	103.099040
2206.000000	103.102732
2204.000000	103.106106
2202.000000	103.110626
2200.000000	103.120297
2198.000000	103.125428
2196.000000	103.129405
2194.000000	103.129575
2192.000000	103.135102
2190.000000	103.137766
2188.000000	103.138862
2186.000000	103.140060
2184.000000	103.144751
2182.000000	103.144241
2180.000000	103.147256
2178.000000	103.147965
2176.000000	103.147851
2174.000000	103.138558
2172.000000	103.117805
2170.000000	103.095042
2168.000000	103.109002
2166.000000	103.131706
2164.000000	103.143116
2162.000000	103.143261
2160.000000	103.142233
2158.000000	103.141611
2156.000000	103.146534
2154.000000	103.145646
2152.000000	103.146521
2150.000000	103.145009
2148.000000	103.146088
2146.000000	103.145925
2144.000000	103.150375
2142.000000	103.150263
2140.000000	103.150992
2138.000000	103.148692
2136.000000	103.147857
2134.000000	103.147233
2132.000000	103.150249
2130.000000	103.149981
2128.000000	103.151892
2126.000000	103.152284
2124.000000	103.156479
2122.000000	103.159548
2120.000000	103.163910
2118.000000	103.164773
2116.000000	103.169806
2114.000000	103.178511
2112.000000	103.191178
2110.000000	103.202232
2108.000000	103.216941
2106.000000	103.230737
2104.000000	103.246819
2102.000000	103.258063
2100.000000	103.273040
2098.000000	103.284841
2096.000000	103.299546
2094.000000	103.311200
2092.000000	103.326434
2090.000000	103.339851
2088.000000	103.362236
2086.000000	103.379656
2084.000000	103.399201
2082.000000	103.414982
2080.000000	103.434768
2078.000000	103.448592
2076.000000	103.467057
2074.000000	103.481441
2072.000000	103.503379
2070.000000	103.523244
2068.000000	103.539163
2066.000000	103.543943
2064.000000	103.570246
2062.000000	103.606613
2060.000000	103.635851
2058.000000	103.657974
2056.000000	103.681703
2054.000000	103.700264
2052.000000	103.722533
2050.000000	103.743408
2048.000000	103.768656
2046.000000	103.785991
2044.000000	103.800236
2042.000000	103.809978
2040.000000	103.836928
2038.000000	103.862551
2036.000000	103.878679
2034.000000	103.885421
2032.000000	103.886352
2030.000000	103.870748
2028.000000	103.883391
2026.000000	103.918711
2024.000000	103.944416
2022.000000	103.952963
2020.000000	103.948242
2018.000000	103.934804
2016.000000	103.965280
2014.000000	104.013566
2012.000000	104.042017
2010.000000	104.056693
2008.000000	104.075828
2006.000000	104.092454
2004.000000	104.109284
2002.000000	104.113833
2000.000000	104.117751
1998.000000	104.124282
1996.000000	104.124927
1994.000000	104.070334
1992.000000	104.025939
1990.000000	104.066400
1988.000000	104.109848
1986.000000	104.124859
1984.000000	104.130665
1982.000000	104.123395
1980.000000	104.116273
1978.000000	104.103737
1976.000000	104.091154
1974.000000	104.075082
1972.000000	104.058954
1970.000000	104.016757
1968.000000	103.949366
1966.000000	103.935154
1964.000000	103.956280
1962.000000	103.907577
1960.000000	103.788802
1958.000000	103.757097
1956.000000	103.837945
1954.000000	103.868889
1952.000000	103.856941
1950.000000	103.824457
1948.000000	103.796229
1946.000000	103.739943
1944.000000	103.627202
1942.000000	103.583658
1940.000000	103.682814
1938.000000	103.718767
1936.000000	103.701835
1934.000000	103.673287
1932.000000	103.654876
1930.000000	103.628177
1928.000000	103.601105
1926.000000	103.535062
1924.000000	103.422900
1922.000000	103.362222
1920.000000	103.245151
1918.000000	103.092925
1916.000000	103.226451
1914.000000	103.324308
1912.000000	103.267503
1910.000000	103.170576
1908.000000	103.138464
1906.000000	103.121243
1904.000000	103.089287
1902.000000	103.038620
1900.000000	102.999158
1898.000000	102.930472
1896.000000	102.850919
1894.000000	102.817752
1892.000000	102.760357
1890.000000	102.627429
1888.000000	102.682415
1886.000000	102.767748
1884.000000	102.776078
1882.000000	102.761163
1880.000000	102.747610
1878.000000	102.721464
1876.000000	102.706989
1874.000000	102.667965
1872.000000	102.492280
1870.000000	102.126109
1868.000000	102.089697
1866.000000	102.359393
1864.000000	102.504464
1862.000000	102.493753
1860.000000	102.464139
1858.000000	102.433462
1856.000000	102.416670
1854.000000	102.381019
1852.000000	102.346938
1850.000000	102.260724
1848.000000	102.083259
1846.000000	101.569912
1844.000000	101.256872
1842.000000	101.712636
1840.000000	102.028544
1838.000000	101.980555
1836.000000	101.931550
1834.000000	101.858874
1832.000000	101.548215
1830.000000	101.231672
1828.000000	101.315080
1826.000000	101.288396
1824.000000	101.321098
1822.000000	101.480758
1820.000000	101.479452
1818.000000	101.389384
1816.000000	101.332770
1814.000000	101.234340
1812.000000	101.043452
1810.000000	100.934173
1808.000000	100.949587
1806.000000	100.897272
1804.000000	100.706254
1802.000000	100.392924
1800.000000	100.249033
1798.000000	100.289484
1796.000000	100.157556
1794.000000	99.534803
1792.000000	99.202028
1790.000000	99.621679
1788.000000	99.860849
1786.000000	99.638495
1784.000000	99.494875
1782.000000	99.410758
1780.000000	99.315641
1778.000000	99.281608
1776.000000	98.958995
1774.000000	98.055727
1772.000000	97.613983
1770.000000	98.069735
1768.000000	98.343122
1766.000000	98.606809
1764.000000	98.445532
1762.000000	98.038568
1760.000000	98.104205
1758.000000	98.044395
1756.000000	97.920202
1754.000000	97.708202
1752.000000	96.940644
1750.000000	96.696778
1748.000000	96.965779
1746.000000	97.083268
1744.000000	96.952138
1742.000000	96.574646
1740.000000	96.202954
1738.000000	96.195806
1736.000000	95.226580
1734.000000	94.223594
1732.000000	95.203799
1730.000000	96.144173
1728.000000	96.392897
1726.000000	96.402605
1724.000000	96.301899
1722.000000	96.114917
1720.000000	95.165269
1718.000000	93.843790
1716.000000	94.113526
1714.000000	95.121938
1712.000000	95.635928
1710.000000	95.598632
1708.000000	95.240406
1706.000000	94.792476
1704.000000	94.562759
1702.000000	93.321006
1700.000000	92.389384
1698.000000	92.751058
1696.000000	92.672702
1694.000000	93.853705
1692.000000	94.899284
1690.000000	94.843762
1688.000000	94.332168
1686.000000	92.637209
1684.000000	91.990715
1682.000000	93.530359
1680.000000	94.434649
1678.000000	94.257611
1676.000000	93.534006
1674.000000	93.540821
1672.000000	93.625214
1670.000000	93.180934
1668.000000	93.474753
1666.000000	93.906631
1664.000000	93.555220
1662.000000	93.384837
1660.000000	93.689027
1658.000000	93.604518
1656.000000	92.203450
1654.000000	89.561719
1652.000000	89.760173
1650.000000	91.871741
1648.000000	91.760112
1646.000000	91.394554
1644.000000	92.206295
1642.000000	92.694477
1640.000000	92.450775
1638.000000	91.489611
1636.000000	90.360044
1634.000000	90.891941
1632.000000	91.765316
1630.000000	91.616007
1628.000000	91.180549
1626.000000	90.757987
1624.000000	90.113316
1622.000000	89.836581
1620.000000	89.491107
1618.000000	88.168664
1616.000000	87.619076
1614.000000	88.160847
1612.000000	87.913479
1610.000000	87.283030
1608.000000	86.967806
1606.000000	87.025798
1604.000000	87.226953
1602.000000	87.478347
1600.000000	87.729097
1598.000000	87.938364
1596.000000	88.073019
1594.000000	88.187527
1592.000000	88.268455
1590.000000	88.283136
1588.000000	88.253607
1586.000000	88.191627
1584.000000	88.117771
1582.000000	88.066339
1580.000000	87.874491
1578.000000	86.834009
1576.000000	86.097829
1574.000000	87.067434
1572.000000	87.390897
1570.000000	86.859145
1568.000000	86.965503
1566.000000	87.100506
1564.000000	86.779707
1562.000000	85.401146
1560.000000	83.093406
1558.000000	83.131291
1556.000000	84.805686
1554.000000	85.722263
1552.000000	86.401047
1550.000000	86.770384
1548.000000	86.954877
1546.000000	86.727509
1544.000000	86.167120
1542.000000	85.194895
1540.000000	84.643607
1538.000000	86.120386
1536.000000	87.593381
1534.000000	87.596937
1532.000000	87.959408
1530.000000	88.341853
1528.000000	88.110170
1526.000000	87.744699
1524.000000	87.287769
1522.000000	86.445313
1520.000000	86.623192
1518.000000	87.121214
1516.000000	87.176404
1514.000000	87.235704
1512.000000	87.030727
1510.000000	86.375802
1508.000000	84.683359
1506.000000	83.881668
1504.000000	84.721346
1502.000000	84.274997
1500.000000	81.750150
1498.000000	78.285390
1496.000000	75.784095
1494.000000	75.621028
1492.000000	76.707121
1490.000000	78.329153
1488.000000	80.321531
1486.000000	82.044762
1484.000000	83.179348
1482.000000	83.688825
1480.000000	83.919726
1478.000000	83.773335
1476.000000	83.271050
1474.000000	82.525281
1472.000000	82.349502
1470.000000	82.902196
1468.000000	82.877108
1466.000000	82.159098
1464.000000	81.765486
1462.000000	81.614481
1460.000000	80.485978
1458.000000	78.400308
1456.000000	77.427490
1454.000000	77.581326
1452.000000	77.298808
1450.000000	77.348720
1448.000000	78.123043
1446.000000	79.161229
1444.000000	79.710050
1442.000000	79.838653
1440.000000	79.664705
1438.000000	79.023235
1436.000000	78.937315
1434.000000	79.651568
1432.000000	79.811542
1430.000000	79.718778
1428.000000	79.786954
1426.000000	79.814587
1424.000000	79.675294
1422.000000	79.354783
1420.000000	78.606739
1418.000000	78.607093
1416.000000	79.036757
1414.000000	79.017529
1412.000000	78.669755
1410.000000	78.154797
1408.000000	77.396580
1406.000000	76.533372
1404.000000	76.066541
1402.000000	76.102445
1400.000000	76.243750
1398.000000	76.636896
1396.000000	76.976815
1394.000000	77.315816
1392.000000	77.776910
1390.000000	77.785485
1388.000000	77.367610
1386.000000	77.140224
1384.000000	77.150053
1382.000000	77.274027
1380.000000	77.364666
1378.000000	77.298524
1376.000000	77.094688
1374.000000	76.930294
1372.000000	76.950470
1370.000000	76.890940
1368.000000	76.738873
1366.000000	76.570737
1364.000000	76.275378
1362.000000	76.069309
1360.000000	76.039688
1358.000000	75.959120
1356.000000	75.770764
1354.000000	75.569695
1352.000000	75.371123
1350.000000	75.155486
1348.000000	74.938943
1346.000000	74.718291
1344.000000	74.470835
1342.000000	74.169812
1340.000000	73.874004
1338.000000	73.746869
1336.000000	73.713265
1334.000000	73.644880
1332.000000	73.501421
1330.000000	73.312742
1328.000000	73.092134
1326.000000	72.851597
1324.000000	72.589555
1322.000000	72.304692
1320.000000	71.987215
1318.000000	71.688524
1316.000000	71.401993
1314.000000	71.094604
1312.000000	70.787981
1310.000000	70.486993
1308.000000	70.165817
1306.000000	69.842713
1304.000000	69.505419
1302.000000	69.162791
1300.000000	68.821226
1298.000000	68.480467
1296.000000	68.126839
1294.000000	67.764742
1292.000000	67.380434
1290.000000	66.986466
1288.000000	66.586803
1286.000000	66.193737
1284.000000	65.785540
1282.000000	65.357151
1280.000000	64.905524
1278.000000	64.421760
1276.000000	63.883818
1274.000000	63.270014
1272.000000	62.542043
1270.000000	61.662371
1268.000000	60.563762
1266.000000	59.252900
1264.000000	57.887047
1262.000000	56.786670
1260.000000	56.236425
1258.000000	56.244837
1256.000000	56.536073
1254.000000	56.787689
1252.000000	56.791547
1250.000000	56.551981
1248.000000	56.161244
1246.000000	55.694330
1244.000000	55.185274
1242.000000	54.670904
1240.000000	54.166097
1238.000000	53.680976
1236.000000	53.205861
1234.000000	52.743826
1232.000000	52.291603
1230.000000	51.847769
1228.000000	51.400584
1226.000000	50.952100
1224.000000	50.496684
1222.000000	50.030589
1220.000000	49.538711
1218.000000	49.030236
1216.000000	48.514453
1214.000000	48.004978
1212.000000	47.512132
1210.000000	47.060455
1208.000000	46.643152
1206.000000	46.248970
1204.000000	45.855964
1202.000000	45.460357
1200.000000	45.066489
1198.000000	44.680084
1196.000000	44.290723
1194.000000	43.890904
1192.000000	43.473744
1190.000000	43.045862
1188.000000	42.606896
1186.000000	42.138319
1184.000000	41.554363
1182.000000	40.829157
1180.000000	40.266315
1178.000000	40.020711
1176.000000	39.790379
1174.000000	39.437591
1172.000000	39.015909
1170.000000	38.572329
1168.000000	38.106099
1166.000000	37.632238
1164.000000	37.161762
1162.000000	36.701506
1160.000000	36.246313
1158.000000	35.809188
1156.000000	35.389395
1154.000000	34.979349
1152.000000	34.556414
1150.000000	34.133798
1148.000000	33.705562
1146.000000	33.270870
1144.000000	32.840885
1142.000000	32.462305
1140.000000	32.151944
1138.000000	31.843974
1136.000000	31.483861
1134.000000	31.090758
1132.000000	30.676734
1130.000000	30.250952
1128.000000	29.827238
1126.000000	29.410771
1124.000000	28.986807
1122.000000	28.553767
1120.000000	28.106212
1118.000000	27.651728
1116.000000	27.188923
1114.000000	26.725118
1112.000000	26.258692
1110.000000	25.795582
1108.000000	25.342073
1106.000000	24.908967
1104.000000	24.493444
1102.000000	24.086483
1100.000000	23.674527
1098.000000	23.267986
1096.000000	22.871441
1094.000000	22.492440
1092.000000	22.128214
1090.000000	21.777898
1088.000000	21.437051
1086.000000	21.100948
1084.000000	20.755267
1082.000000	20.399115
1080.000000	20.061083
1078.000000	19.759624
1076.000000	19.482407
1074.000000	19.250148
1072.000000	19.035078
1070.000000	18.811760
1068.000000	18.585068
1066.000000	18.358612
1064.000000	18.129242
1062.000000	17.896034
1060.000000	17.648021
1058.000000	17.362745
1056.000000	16.976195
1054.000000	16.463374
1052.000000	15.956423
1050.000000	15.658155
1048.000000	15.623712
1046.000000	15.706724
1044.000000	15.709541
1042.000000	15.592486
1040.000000	15.406526
1038.000000	15.196897
1036.000000	14.973130
1034.000000	14.738262
1032.000000	14.489362
1030.000000	14.231370
1028.000000	13.968674
1026.000000	13.702894
1024.000000	13.431201
1022.000000	13.164532
1020.000000	12.911189
1018.000000	12.678915
1016.000000	12.466656
1014.000000	12.277854
1012.000000	12.109993
1010.000000	11.952648
1008.000000	11.786712
1006.000000	11.610213
1004.000000	11.415805
1002.000000	11.203879
1000.000000	10.979906
