PE IR       SUBTECH     SPECTRUM    ASCII       PEDS        4.00        
   -1
TE109A_071_140K_BG.ASC
20/04/21
19:48:42.00
20/04/21
19:48:42.00
Administrator
TE109A, Tuesday, April 21 2020, 071.
1000.000000
#HDR
-1
-1
#GR
cm-1
EGY
1.0
0.0
6000.000000
-2.000000
2501
8
105.382206
10.910621
#DATA
6000.000000	16.486558
5998.000000	16.515880
5996.000000	16.546516
5994.000000	16.579988
5992.000000	16.614364
5990.000000	16.647959
5988.000000	16.680247
5986.000000	16.714200
5984.000000	16.748040
5982.000000	16.782735
5980.000000	16.815667
5978.000000	16.848248
5976.000000	16.881476
5974.000000	16.914886
5972.000000	16.949667
5970.000000	16.983482
5968.000000	17.015780
5966.000000	17.048645
5964.000000	17.082439
5962.000000	17.117700
5960.000000	17.152670
5958.000000	17.186773
5956.000000	17.220517
5954.000000	17.254374
5952.000000	17.286889
5950.000000	17.321067
5948.000000	17.356254
5946.000000	17.390762
5944.000000	17.423196
5942.000000	17.456606
5940.000000	17.492178
5938.000000	17.528317
5936.000000	17.561764
5934.000000	17.595715
5932.000000	17.630087
5930.000000	17.664741
5928.000000	17.697961
5926.000000	17.731617
5924.000000	17.767183
5922.000000	17.802136
5920.000000	17.837127
5918.000000	17.872785
5916.000000	17.909997
5914.000000	17.947182
5912.000000	17.981719
5910.000000	18.016254
5908.000000	18.051565
5906.000000	18.089087
5904.000000	18.126243
5902.000000	18.162443
5900.000000	18.198222
5898.000000	18.235610
5896.000000	18.274352
5894.000000	18.312064
5892.000000	18.347941
5890.000000	18.382237
5888.000000	18.416956
5886.000000	18.452660
5884.000000	18.489335
5882.000000	18.526602
5880.000000	18.562529
5878.000000	18.599250
5876.000000	18.634657
5874.000000	18.670456
5872.000000	18.705857
5870.000000	18.741498
5868.000000	18.778098
5866.000000	18.815222
5864.000000	18.852839
5862.000000	18.890722
5860.000000	18.929092
5858.000000	18.967155
5856.000000	19.006145
5854.000000	19.045024
5852.000000	19.083313
5850.000000	19.122371
5848.000000	19.161430
5846.000000	19.201361
5844.000000	19.240976
5842.000000	19.280542
5840.000000	19.319913
5838.000000	19.360850
5836.000000	19.402466
5834.000000	19.445145
5832.000000	19.487373
5830.000000	19.529419
5828.000000	19.571493
5826.000000	19.611806
5824.000000	19.652094
5822.000000	19.693106
5820.000000	19.734351
5818.000000	19.775555
5816.000000	19.815652
5814.000000	19.855758
5812.000000	19.896267
5810.000000	19.936940
5808.000000	19.978240
5806.000000	20.019848
5804.000000	20.061711
5802.000000	20.102654
5800.000000	20.141552
5798.000000	20.180431
5796.000000	20.219753
5794.000000	20.261059
5792.000000	20.303122
5790.000000	20.345517
5788.000000	20.388320
5786.000000	20.430852
5784.000000	20.473404
5782.000000	20.515031
5780.000000	20.555414
5778.000000	20.595363
5776.000000	20.635445
5774.000000	20.676901
5772.000000	20.719067
5770.000000	20.761937
5768.000000	20.803801
5766.000000	20.846347
5764.000000	20.888989
5762.000000	20.931277
5760.000000	20.971995
5758.000000	21.012912
5756.000000	21.054157
5754.000000	21.095873
5752.000000	21.137610
5750.000000	21.180028
5748.000000	21.222378
5746.000000	21.263275
5744.000000	21.304025
5742.000000	21.345222
5740.000000	21.387481
5738.000000	21.429851
5736.000000	21.470957
5734.000000	21.510479
5732.000000	21.549748
5730.000000	21.589970
5728.000000	21.630756
5726.000000	21.671723
5724.000000	21.712705
5722.000000	21.754486
5720.000000	21.796866
5718.000000	21.838960
5716.000000	21.881476
5714.000000	21.923875
5712.000000	21.967107
5710.000000	22.011555
5708.000000	22.055998
5706.000000	22.099679
5704.000000	22.142756
5702.000000	22.187539
5700.000000	22.233376
5698.000000	22.278991
5696.000000	22.323925
5694.000000	22.367624
5692.000000	22.411580
5690.000000	22.457812
5688.000000	22.505421
5686.000000	22.552530
5684.000000	22.596125
5682.000000	22.638241
5680.000000	22.682008
5678.000000	22.728227
5676.000000	22.775505
5674.000000	22.821482
5672.000000	22.866366
5670.000000	22.912299
5668.000000	22.957981
5666.000000	23.003278
5664.000000	23.047168
5662.000000	23.092224
5660.000000	23.138171
5658.000000	23.184839
5656.000000	23.230496
5654.000000	23.275552
5652.000000	23.320965
5650.000000	23.366686
5648.000000	23.411683
5646.000000	23.457095
5644.000000	23.502697
5642.000000	23.549369
5640.000000	23.595390
5638.000000	23.640272
5636.000000	23.685008
5634.000000	23.729053
5632.000000	23.774780
5630.000000	23.820611
5628.000000	23.865600
5626.000000	23.910197
5624.000000	23.954510
5622.000000	24.000759
5620.000000	24.047565
5618.000000	24.095306
5616.000000	24.141062
5614.000000	24.184770
5612.000000	24.228659
5610.000000	24.274401
5608.000000	24.321890
5606.000000	24.368379
5604.000000	24.413456
5602.000000	24.459230
5600.000000	24.504138
5598.000000	24.549260
5596.000000	24.594678
5594.000000	24.640452
5592.000000	24.687687
5590.000000	24.736004
5588.000000	24.783689
5586.000000	24.830057
5584.000000	24.875604
5582.000000	24.923387
5580.000000	24.970967
5578.000000	25.017357
5576.000000	25.064523
5574.000000	25.113037
5572.000000	25.162624
5570.000000	25.211070
5568.000000	25.259554
5566.000000	25.307737
5564.000000	25.354403
5562.000000	25.400289
5560.000000	25.446562
5558.000000	25.494878
5556.000000	25.543526
5554.000000	25.591412
5552.000000	25.638053
5550.000000	25.685077
5548.000000	25.732449
5546.000000	25.780602
5544.000000	25.828662
5542.000000	25.876542
5540.000000	25.923142
5538.000000	25.969522
5536.000000	26.017301
5534.000000	26.065813
5532.000000	26.113684
5530.000000	26.161471
5528.000000	26.209581
5526.000000	26.257198
5524.000000	26.302561
5522.000000	26.348118
5520.000000	26.394431
5518.000000	26.442085
5516.000000	26.491230
5514.000000	26.540822
5512.000000	26.588440
5510.000000	26.634560
5508.000000	26.680517
5506.000000	26.728668
5504.000000	26.778235
5502.000000	26.827965
5500.000000	26.877462
5498.000000	26.923833
5496.000000	26.967073
5494.000000	27.009483
5492.000000	27.055316
5490.000000	27.106371
5488.000000	27.160490
5486.000000	27.214601
5484.000000	27.266565
5482.000000	27.316110
5480.000000	27.361102
5478.000000	27.402923
5476.000000	27.447685
5474.000000	27.498349
5472.000000	27.551775
5470.000000	27.601962
5468.000000	27.650504
5466.000000	27.699341
5464.000000	27.746779
5462.000000	27.794761
5460.000000	27.843906
5458.000000	27.896933
5456.000000	27.951332
5454.000000	28.002820
5452.000000	28.048057
5450.000000	28.089383
5448.000000	28.132201
5446.000000	28.178949
5444.000000	28.228248
5442.000000	28.280835
5440.000000	28.332737
5438.000000	28.380545
5436.000000	28.427493
5434.000000	28.475778
5432.000000	28.522652
5430.000000	28.569245
5428.000000	28.621975
5426.000000	28.681088
5424.000000	28.737654
5422.000000	28.788656
5420.000000	28.837206
5418.000000	28.880339
5416.000000	28.915706
5414.000000	28.952400
5412.000000	29.000054
5410.000000	29.059977
5408.000000	29.120356
5406.000000	29.175738
5404.000000	29.227468
5402.000000	29.278098
5400.000000	29.325601
5398.000000	29.366606
5396.000000	29.406636
5394.000000	29.455483
5392.000000	29.512934
5390.000000	29.569598
5388.000000	29.617421
5386.000000	29.665421
5384.000000	29.721379
5382.000000	29.777891
5380.000000	29.822624
5378.000000	29.862320
5376.000000	29.910725
5374.000000	29.971511
5372.000000	30.032599
5370.000000	30.087114
5368.000000	30.136220
5366.000000	30.185090
5364.000000	30.237022
5362.000000	30.290554
5360.000000	30.342927
5358.000000	30.389311
5356.000000	30.429022
5354.000000	30.472033
5352.000000	30.523768
5350.000000	30.578290
5348.000000	30.620964
5346.000000	30.661647
5344.000000	30.710493
5342.000000	30.763567
5340.000000	30.813925
5338.000000	30.866256
5336.000000	30.926281
5334.000000	30.986211
5332.000000	31.037954
5330.000000	31.084103
5328.000000	31.132576
5326.000000	31.188076
5324.000000	31.246201
5322.000000	31.300395
5320.000000	31.349903
5318.000000	31.398932
5316.000000	31.448973
5314.000000	31.500434
5312.000000	31.550312
5310.000000	31.596815
5308.000000	31.643253
5306.000000	31.694440
5304.000000	31.748296
5302.000000	31.801531
5300.000000	31.854384
5298.000000	31.908162
5296.000000	31.960217
5294.000000	32.007322
5292.000000	32.053013
5290.000000	32.103140
5288.000000	32.156701
5286.000000	32.210693
5284.000000	32.263408
5282.000000	32.318277
5280.000000	32.374135
5278.000000	32.428657
5276.000000	32.482167
5274.000000	32.534831
5272.000000	32.584888
5270.000000	32.633060
5268.000000	32.677050
5266.000000	32.719860
5264.000000	32.767683
5262.000000	32.825640
5260.000000	32.886956
5258.000000	32.939514
5256.000000	32.987696
5254.000000	33.038698
5252.000000	33.090806
5250.000000	33.138402
5248.000000	33.183856
5246.000000	33.235914
5244.000000	33.295141
5242.000000	33.356764
5240.000000	33.415182
5238.000000	33.469105
5236.000000	33.518932
5234.000000	33.567266
5232.000000	33.616342
5230.000000	33.665701
5228.000000	33.712159
5226.000000	33.761027
5224.000000	33.816090
5222.000000	33.873838
5220.000000	33.928083
5218.000000	33.981184
5216.000000	34.035656
5214.000000	34.088603
5212.000000	34.134497
5210.000000	34.174098
5208.000000	34.217042
5206.000000	34.273551
5204.000000	34.338610
5202.000000	34.400635
5200.000000	34.453818
5198.000000	34.505224
5196.000000	34.559218
5194.000000	34.615941
5192.000000	34.672269
5190.000000	34.725767
5188.000000	34.776040
5186.000000	34.827402
5184.000000	34.883505
5182.000000	34.943065
5180.000000	35.000001
5178.000000	35.053319
5176.000000	35.105344
5174.000000	35.159263
5172.000000	35.214952
5170.000000	35.271228
5168.000000	35.325211
5166.000000	35.377424
5164.000000	35.429946
5162.000000	35.484415
5160.000000	35.538670
5158.000000	35.593291
5156.000000	35.648207
5154.000000	35.703986
5152.000000	35.759247
5150.000000	35.814159
5148.000000	35.868772
5146.000000	35.922527
5144.000000	35.975495
5142.000000	36.028850
5140.000000	36.083898
5138.000000	36.139616
5136.000000	36.192905
5134.000000	36.246157
5132.000000	36.301024
5130.000000	36.356990
5128.000000	36.410668
5126.000000	36.462324
5124.000000	36.514781
5122.000000	36.569847
5120.000000	36.625429
5118.000000	36.680794
5116.000000	36.735713
5114.000000	36.789833
5112.000000	36.842361
5110.000000	36.895619
5108.000000	36.951131
5106.000000	37.007186
5104.000000	37.062661
5102.000000	37.118447
5100.000000	37.174632
5098.000000	37.230097
5096.000000	37.284382
5094.000000	37.340914
5092.000000	37.398520
5090.000000	37.455469
5088.000000	37.510682
5086.000000	37.567358
5084.000000	37.625355
5082.000000	37.683586
5080.000000	37.740713
5078.000000	37.796638
5076.000000	37.851506
5074.000000	37.908836
5072.000000	37.966639
5070.000000	38.022974
5068.000000	38.076963
5066.000000	38.132273
5064.000000	38.188486
5062.000000	38.244900
5060.000000	38.301288
5058.000000	38.359273
5056.000000	38.415635
5054.000000	38.470710
5052.000000	38.525365
5050.000000	38.581260
5048.000000	38.636359
5046.000000	38.692404
5044.000000	38.750358
5042.000000	38.807872
5040.000000	38.862612
5038.000000	38.916801
5036.000000	38.971328
5034.000000	39.027306
5032.000000	39.084322
5030.000000	39.141620
5028.000000	39.196815
5026.000000	39.251621
5024.000000	39.307881
5022.000000	39.366004
5020.000000	39.422633
5018.000000	39.478190
5016.000000	39.533697
5014.000000	39.590468
5012.000000	39.646158
5010.000000	39.702020
5008.000000	39.758295
5006.000000	39.814410
5004.000000	39.871021
5002.000000	39.930002
5000.000000	39.989679
4998.000000	40.047927
4996.000000	40.104734
4994.000000	40.161463
4992.000000	40.217919
4990.000000	40.275735
4988.000000	40.334781
4986.000000	40.395647
4984.000000	40.455449
4982.000000	40.513648
4980.000000	40.572121
4978.000000	40.631703
4976.000000	40.689698
4974.000000	40.746407
4972.000000	40.804164
4970.000000	40.862819
4968.000000	40.919851
4966.000000	40.975688
4964.000000	41.031441
4962.000000	41.088844
4960.000000	41.149168
4958.000000	41.208664
4956.000000	41.264020
4954.000000	41.318485
4952.000000	41.375472
4950.000000	41.433566
4948.000000	41.489995
4946.000000	41.546770
4944.000000	41.603678
4942.000000	41.660268
4940.000000	41.715988
4938.000000	41.770620
4936.000000	41.825572
4934.000000	41.883222
4932.000000	41.941341
4930.000000	41.996476
4928.000000	42.051226
4926.000000	42.109289
4924.000000	42.166801
4922.000000	42.223474
4920.000000	42.281715
4918.000000	42.342821
4916.000000	42.400999
4914.000000	42.457272
4912.000000	42.513387
4910.000000	42.571639
4908.000000	42.631147
4906.000000	42.691067
4904.000000	42.749854
4902.000000	42.806354
4900.000000	42.862721
4898.000000	42.921922
4896.000000	42.982875
4894.000000	43.042832
4892.000000	43.101210
4890.000000	43.160744
4888.000000	43.220801
4886.000000	43.279641
4884.000000	43.337372
4882.000000	43.396899
4880.000000	43.457384
4878.000000	43.517471
4876.000000	43.576278
4874.000000	43.635461
4872.000000	43.693952
4870.000000	43.752700
4868.000000	43.811535
4866.000000	43.870366
4864.000000	43.927566
4862.000000	43.984506
4860.000000	44.041888
4858.000000	44.100553
4856.000000	44.159222
4854.000000	44.217552
4852.000000	44.275294
4850.000000	44.333481
4848.000000	44.390840
4846.000000	44.447655
4844.000000	44.505095
4842.000000	44.564312
4840.000000	44.622791
4838.000000	44.680093
4836.000000	44.736674
4834.000000	44.794337
4832.000000	44.850833
4830.000000	44.906100
4828.000000	44.961848
4826.000000	45.021128
4824.000000	45.081699
4822.000000	45.141446
4820.000000	45.200149
4818.000000	45.259330
4816.000000	45.318232
4814.000000	45.376887
4812.000000	45.435859
4810.000000	45.495543
4808.000000	45.553754
4806.000000	45.611654
4804.000000	45.671166
4802.000000	45.733147
4800.000000	45.793125
4798.000000	45.852707
4796.000000	45.913424
4794.000000	45.974097
4792.000000	46.032898
4790.000000	46.092590
4788.000000	46.153372
4786.000000	46.214541
4784.000000	46.275333
4782.000000	46.336038
4780.000000	46.396011
4778.000000	46.455535
4776.000000	46.514759
4774.000000	46.574901
4772.000000	46.634464
4770.000000	46.693667
4768.000000	46.751821
4766.000000	46.810055
4764.000000	46.869242
4762.000000	46.929632
4760.000000	46.989211
4758.000000	47.048364
4756.000000	47.106209
4754.000000	47.163905
4752.000000	47.223598
4750.000000	47.284516
4748.000000	47.342790
4746.000000	47.399879
4744.000000	47.456737
4742.000000	47.514263
4740.000000	47.571566
4738.000000	47.629203
4736.000000	47.685912
4734.000000	47.744043
4732.000000	47.802780
4730.000000	47.861216
4728.000000	47.920180
4726.000000	47.981293
4724.000000	48.040993
4722.000000	48.099704
4720.000000	48.158885
4718.000000	48.218936
4716.000000	48.279814
4714.000000	48.342457
4712.000000	48.404022
4710.000000	48.465537
4708.000000	48.529475
4706.000000	48.593783
4704.000000	48.656300
4702.000000	48.718286
4700.000000	48.780031
4698.000000	48.842129
4696.000000	48.904394
4694.000000	48.966603
4692.000000	49.027638
4690.000000	49.088115
4688.000000	49.148658
4686.000000	49.210813
4684.000000	49.273152
4682.000000	49.336470
4680.000000	49.399839
4678.000000	49.461885
4676.000000	49.523121
4674.000000	49.585382
4672.000000	49.646173
4670.000000	49.706617
4668.000000	49.767317
4666.000000	49.827871
4664.000000	49.887513
4662.000000	49.947324
4660.000000	50.006381
4658.000000	50.067702
4656.000000	50.130951
4654.000000	50.193381
4652.000000	50.253265
4650.000000	50.314016
4648.000000	50.374594
4646.000000	50.434873
4644.000000	50.495529
4642.000000	50.556673
4640.000000	50.617355
4638.000000	50.679238
4636.000000	50.740395
4634.000000	50.800677
4632.000000	50.861511
4630.000000	50.923321
4628.000000	50.984214
4626.000000	51.045028
4624.000000	51.104724
4622.000000	51.164377
4620.000000	51.225233
4618.000000	51.287866
4616.000000	51.351129
4614.000000	51.415887
4612.000000	51.480800
4610.000000	51.545133
4608.000000	51.609162
4606.000000	51.674560
4604.000000	51.739641
4602.000000	51.804189
4600.000000	51.868343
4598.000000	51.933347
4596.000000	51.998445
4594.000000	52.064720
4592.000000	52.130699
4590.000000	52.195173
4588.000000	52.258135
4586.000000	52.321141
4584.000000	52.383776
4582.000000	52.448206
4580.000000	52.514123
4578.000000	52.579237
4576.000000	52.641618
4574.000000	52.704705
4572.000000	52.768803
4570.000000	52.831833
4568.000000	52.893731
4566.000000	52.957592
4564.000000	53.021422
4562.000000	53.084548
4560.000000	53.147220
4558.000000	53.209715
4556.000000	53.272576
4554.000000	53.336610
4552.000000	53.399420
4550.000000	53.461368
4548.000000	53.522484
4546.000000	53.584157
4544.000000	53.646229
4542.000000	53.709007
4540.000000	53.772508
4538.000000	53.837022
4536.000000	53.900218
4534.000000	53.963294
4532.000000	54.025996
4530.000000	54.088590
4528.000000	54.151302
4526.000000	54.213295
4524.000000	54.274470
4522.000000	54.340039
4520.000000	54.407431
4518.000000	54.471802
4516.000000	54.534658
4514.000000	54.598950
4512.000000	54.663517
4510.000000	54.727754
4508.000000	54.792306
4506.000000	54.858058
4504.000000	54.923408
4502.000000	54.988543
4500.000000	55.054775
4498.000000	55.120475
4496.000000	55.184069
4494.000000	55.249361
4492.000000	55.316114
4490.000000	55.383168
4488.000000	55.448992
4486.000000	55.514465
4484.000000	55.579114
4482.000000	55.643344
4480.000000	55.706890
4478.000000	55.770336
4476.000000	55.832773
4474.000000	55.895812
4472.000000	55.958902
4470.000000	56.022633
4468.000000	56.085992
4466.000000	56.148662
4464.000000	56.210856
4462.000000	56.274082
4460.000000	56.336193
4458.000000	56.397435
4456.000000	56.457893
4454.000000	56.519610
4452.000000	56.582732
4450.000000	56.645903
4448.000000	56.707376
4446.000000	56.769091
4444.000000	56.832770
4442.000000	56.897468
4440.000000	56.959888
4438.000000	57.021827
4436.000000	57.084127
4434.000000	57.145595
4432.000000	57.206099
4430.000000	57.268516
4428.000000	57.333470
4426.000000	57.398976
4424.000000	57.461618
4422.000000	57.523134
4420.000000	57.585868
4418.000000	57.650880
4416.000000	57.716593
4414.000000	57.782973
4412.000000	57.849061
4410.000000	57.914470
4408.000000	57.978068
4406.000000	58.040259
4404.000000	58.101534
4402.000000	58.164931
4400.000000	58.230039
4398.000000	58.295541
4396.000000	58.359786
4394.000000	58.423520
4392.000000	58.486249
4390.000000	58.548166
4388.000000	58.609495
4386.000000	58.671193
4384.000000	58.732219
4382.000000	58.792781
4380.000000	58.853776
4378.000000	58.916168
4376.000000	58.977464
4374.000000	59.037880
4372.000000	59.098355
4370.000000	59.159297
4368.000000	59.220108
4366.000000	59.280001
4364.000000	59.338890
4362.000000	59.398979
4360.000000	59.460174
4358.000000	59.522666
4356.000000	59.583786
4354.000000	59.644576
4352.000000	59.708601
4350.000000	59.774536
4348.000000	59.838342
4346.000000	59.900920
4344.000000	59.962508
4342.000000	60.024246
4340.000000	60.086934
4338.000000	60.151192
4336.000000	60.215555
4334.000000	60.278662
4332.000000	60.340602
4330.000000	60.404523
4328.000000	60.470922
4326.000000	60.537994
4324.000000	60.604362
4322.000000	60.670343
4320.000000	60.736495
4318.000000	60.804182
4316.000000	60.872032
4314.000000	60.939980
4312.000000	61.008092
4310.000000	61.075457
4308.000000	61.141563
4306.000000	61.207909
4304.000000	61.273658
4302.000000	61.339701
4300.000000	61.406293
4298.000000	61.472731
4296.000000	61.537366
4294.000000	61.601576
4292.000000	61.665747
4290.000000	61.729967
4288.000000	61.793972
4286.000000	61.857748
4284.000000	61.918382
4282.000000	61.977074
4280.000000	62.036838
4278.000000	62.098090
4276.000000	62.158243
4274.000000	62.217430
4272.000000	62.277169
4270.000000	62.337825
4268.000000	62.394776
4266.000000	62.450907
4264.000000	62.511902
4262.000000	62.575823
4260.000000	62.637776
4258.000000	62.699673
4256.000000	62.763447
4254.000000	62.828730
4252.000000	62.892817
4250.000000	62.955892
4248.000000	63.018334
4246.000000	63.082978
4244.000000	63.148960
4242.000000	63.213406
4240.000000	63.275573
4238.000000	63.338420
4236.000000	63.401603
4234.000000	63.466819
4232.000000	63.533993
4230.000000	63.600087
4228.000000	63.662671
4226.000000	63.725496
4224.000000	63.789713
4222.000000	63.854947
4220.000000	63.919978
4218.000000	63.984598
4216.000000	64.047956
4214.000000	64.112805
4212.000000	64.178887
4210.000000	64.244825
4208.000000	64.310086
4206.000000	64.376151
4204.000000	64.442701
4202.000000	64.510353
4200.000000	64.578239
4198.000000	64.646868
4196.000000	64.715141
4194.000000	64.783805
4192.000000	64.853349
4190.000000	64.923413
4188.000000	64.990790
4186.000000	65.057649
4184.000000	65.124743
4182.000000	65.190394
4180.000000	65.255465
4178.000000	65.322811
4176.000000	65.389218
4174.000000	65.453119
4172.000000	65.516363
4170.000000	65.581993
4168.000000	65.647921
4166.000000	65.711216
4164.000000	65.773227
4162.000000	65.837372
4160.000000	65.901541
4158.000000	65.965252
4156.000000	66.029043
4154.000000	66.092493
4152.000000	66.156512
4150.000000	66.223121
4148.000000	66.290249
4146.000000	66.356544
4144.000000	66.421473
4142.000000	66.485509
4140.000000	66.549927
4138.000000	66.616550
4136.000000	66.683278
4134.000000	66.748884
4132.000000	66.814352
4130.000000	66.880528
4128.000000	66.945050
4126.000000	67.010118
4124.000000	67.078594
4122.000000	67.147292
4120.000000	67.212834
4118.000000	67.277951
4116.000000	67.342737
4114.000000	67.407729
4112.000000	67.473569
4110.000000	67.540610
4108.000000	67.605463
4106.000000	67.668130
4104.000000	67.732751
4102.000000	67.799110
4100.000000	67.863121
4098.000000	67.926224
4096.000000	67.988576
4094.000000	68.053064
4092.000000	68.121100
4090.000000	68.188745
4088.000000	68.255327
4086.000000	68.325062
4084.000000	68.395174
4082.000000	68.464171
4080.000000	68.532114
4078.000000	68.599920
4076.000000	68.666962
4074.000000	68.732198
4072.000000	68.797193
4070.000000	68.863796
4068.000000	68.927935
4066.000000	68.991741
4064.000000	69.057187
4062.000000	69.121508
4060.000000	69.185724
4058.000000	69.251712
4056.000000	69.315882
4054.000000	69.380489
4052.000000	69.446899
4050.000000	69.512415
4048.000000	69.574478
4046.000000	69.635747
4044.000000	69.700251
4042.000000	69.769136
4040.000000	69.836713
4038.000000	69.901269
4036.000000	69.967263
4034.000000	70.036072
4032.000000	70.104870
4030.000000	70.173435
4028.000000	70.239395
4026.000000	70.305167
4024.000000	70.374530
4022.000000	70.444162
4020.000000	70.512005
4018.000000	70.581580
4016.000000	70.651239
4014.000000	70.719660
4012.000000	70.786649
4010.000000	70.853519
4008.000000	70.923329
4006.000000	70.995177
4004.000000	71.063783
4002.000000	71.130925
4000.000000	71.198537
3998.000000	71.263405
3996.000000	71.325393
3994.000000	71.389516
3992.000000	71.455120
3990.000000	71.521377
3988.000000	71.588282
3986.000000	71.652857
3984.000000	71.713927
3982.000000	71.777475
3980.000000	71.842385
3978.000000	71.902199
3976.000000	71.958047
3974.000000	72.018536
3972.000000	72.084089
3970.000000	72.150007
3968.000000	72.215824
3966.000000	72.279858
3964.000000	72.336373
3962.000000	72.392691
3960.000000	72.454760
3958.000000	72.518575
3956.000000	72.580261
3954.000000	72.635347
3952.000000	72.678411
3950.000000	72.721163
3948.000000	72.781354
3946.000000	72.845834
3944.000000	72.899819
3942.000000	72.971595
3940.000000	73.062769
3938.000000	73.141374
3936.000000	73.187720
3934.000000	73.208554
3932.000000	73.252603
3930.000000	73.343267
3928.000000	73.427693
3926.000000	73.481845
3924.000000	73.541583
3922.000000	73.601713
3920.000000	73.630337
3918.000000	73.671253
3916.000000	73.781544
3914.000000	73.919627
3912.000000	74.019913
3910.000000	74.075750
3908.000000	74.058370
3906.000000	73.951752
3904.000000	73.866669
3902.000000	73.903185
3900.000000	74.053090
3898.000000	74.273050
3896.000000	74.442235
3894.000000	74.450968
3892.000000	74.423846
3890.000000	74.493329
3888.000000	74.511662
3886.000000	74.493267
3884.000000	74.599902
3882.000000	74.720971
3880.000000	74.825935
3878.000000	74.953872
3876.000000	75.002052
3874.000000	74.955161
3872.000000	74.839036
3870.000000	74.814298
3868.000000	74.966167
3866.000000	75.093443
3864.000000	75.188535
3862.000000	75.349893
3860.000000	75.486498
3858.000000	75.356130
3856.000000	74.827756
3854.000000	74.468146
3852.000000	74.840532
3850.000000	75.515816
3848.000000	75.898692
3846.000000	75.972381
3844.000000	75.936105
3842.000000	75.842988
3840.000000	75.642304
3838.000000	75.558902
3836.000000	75.788402
3834.000000	76.083402
3832.000000	76.272655
3830.000000	76.420220
3828.000000	76.521266
3826.000000	76.556358
3824.000000	76.457622
3822.000000	76.327953
3820.000000	76.358857
3818.000000	76.373499
3816.000000	76.436505
3814.000000	76.767931
3812.000000	77.061990
3810.000000	77.046475
3808.000000	76.906852
3806.000000	76.916113
3804.000000	76.889623
3802.000000	76.802427
3800.000000	76.992784
3798.000000	77.293528
3796.000000	77.483135
3794.000000	77.639472
3792.000000	77.756313
3790.000000	77.822902
3788.000000	77.862703
3786.000000	77.895643
3784.000000	77.939159
3782.000000	77.958090
3780.000000	77.972131
3778.000000	78.067333
3776.000000	78.194135
3774.000000	78.241797
3772.000000	78.190298
3770.000000	78.164766
3768.000000	78.240349
3766.000000	78.349797
3764.000000	78.451445
3762.000000	78.482071
3760.000000	78.467840
3758.000000	78.518459
3756.000000	78.493451
3754.000000	78.188587
3752.000000	77.851574
3750.000000	77.886463
3748.000000	78.056160
3746.000000	77.955026
3744.000000	78.070092
3742.000000	78.617286
3740.000000	78.917749
3738.000000	78.801920
3736.000000	78.689995
3734.000000	78.777779
3732.000000	79.013540
3730.000000	79.286012
3728.000000	79.420856
3726.000000	79.462291
3724.000000	79.528720
3722.000000	79.621930
3720.000000	79.736205
3718.000000	79.840758
3716.000000	79.833311
3714.000000	79.653301
3712.000000	79.539514
3710.000000	79.702840
3708.000000	79.984783
3706.000000	80.163688
3704.000000	80.188277
3702.000000	80.196416
3700.000000	80.302628
3698.000000	80.422018
3696.000000	80.473362
3694.000000	80.422354
3692.000000	80.211682
3690.000000	79.964815
3688.000000	80.050613
3686.000000	80.450443
3684.000000	80.730759
3682.000000	80.776411
3680.000000	80.658457
3678.000000	80.345956
3676.000000	80.123137
3674.000000	80.235535
3672.000000	80.323972
3670.000000	80.413994
3668.000000	80.745924
3666.000000	81.055663
3664.000000	81.181674
3662.000000	81.214736
3660.000000	81.172517
3658.000000	81.043329
3656.000000	81.002213
3654.000000	81.025399
3652.000000	80.820530
3650.000000	80.578782
3648.000000	80.707124
3646.000000	81.077568
3644.000000	81.341499
3642.000000	81.438387
3640.000000	81.470735
3638.000000	81.482952
3636.000000	81.469815
3634.000000	81.411382
3632.000000	81.189294
3630.000000	80.900301
3628.000000	80.979235
3626.000000	81.338480
3624.000000	81.518808
3622.000000	81.430471
3620.000000	81.294745
3618.000000	81.322526
3616.000000	81.410433
3614.000000	81.407547
3612.000000	81.356626
3610.000000	81.321876
3608.000000	81.390199
3606.000000	81.540133
3604.000000	81.623474
3602.000000	81.617178
3600.000000	81.595946
3598.000000	81.579028
3596.000000	81.557552
3594.000000	81.564397
3592.000000	81.554439
3590.000000	81.444981
3588.000000	81.357363
3586.000000	81.433318
3584.000000	81.564669
3582.000000	81.621755
3580.000000	81.624705
3578.000000	81.622015
3576.000000	81.619682
3574.000000	81.615572
3572.000000	81.581375
3570.000000	81.465812
3568.000000	81.348061
3566.000000	81.372077
3564.000000	81.477845
3562.000000	81.537047
3560.000000	81.554910
3558.000000	81.566968
3556.000000	81.558591
3554.000000	81.525975
3552.000000	81.506256
3550.000000	81.495955
3548.000000	81.455949
3546.000000	81.422922
3544.000000	81.440341
3542.000000	81.473334
3540.000000	81.476686
3538.000000	81.451833
3536.000000	81.430556
3534.000000	81.418489
3532.000000	81.388374
3530.000000	81.337793
3528.000000	81.289641
3526.000000	81.248665
3524.000000	81.210920
3522.000000	81.187833
3520.000000	81.169918
3518.000000	81.144575
3516.000000	81.114711
3514.000000	81.076361
3512.000000	81.024660
3510.000000	80.971324
3508.000000	80.928536
3506.000000	80.873472
3504.000000	80.801566
3502.000000	80.751001
3500.000000	80.718337
3498.000000	80.671036
3496.000000	80.614367
3494.000000	80.563950
3492.000000	80.513037
3490.000000	80.456335
3488.000000	80.403823
3486.000000	80.360906
3484.000000	80.318594
3482.000000	80.283265
3480.000000	80.267309
3478.000000	80.262006
3476.000000	80.258917
3474.000000	80.262596
3472.000000	80.270828
3470.000000	80.279734
3468.000000	80.295982
3466.000000	80.325634
3464.000000	80.363156
3462.000000	80.402995
3460.000000	80.442615
3458.000000	80.478129
3456.000000	80.508115
3454.000000	80.534958
3452.000000	80.557571
3450.000000	80.566948
3448.000000	80.572598
3446.000000	80.600290
3444.000000	80.646703
3442.000000	80.703183
3440.000000	80.774331
3438.000000	80.860799
3436.000000	80.965385
3434.000000	81.088618
3432.000000	81.226084
3430.000000	81.367575
3428.000000	81.507852
3426.000000	81.641901
3424.000000	81.763301
3422.000000	81.874323
3420.000000	81.984654
3418.000000	82.093751
3416.000000	82.189814
3414.000000	82.272191
3412.000000	82.345958
3410.000000	82.413199
3408.000000	82.475234
3406.000000	82.531529
3404.000000	82.582389
3402.000000	82.632661
3400.000000	82.693278
3398.000000	82.767176
3396.000000	82.843559
3394.000000	82.912720
3392.000000	82.981235
3390.000000	83.058344
3388.000000	83.132662
3386.000000	83.194962
3384.000000	83.251852
3382.000000	83.308456
3380.000000	83.361265
3378.000000	83.412503
3376.000000	83.465375
3374.000000	83.513591
3372.000000	83.552687
3370.000000	83.587473
3368.000000	83.628662
3366.000000	83.677493
3364.000000	83.726015
3362.000000	83.770539
3360.000000	83.813537
3358.000000	83.856317
3356.000000	83.898518
3354.000000	83.941687
3352.000000	83.982907
3350.000000	84.023198
3348.000000	84.066137
3346.000000	84.109411
3344.000000	84.150742
3342.000000	84.191266
3340.000000	84.228660
3338.000000	84.262707
3336.000000	84.302357
3334.000000	84.346472
3332.000000	84.387724
3330.000000	84.425531
3328.000000	84.461621
3326.000000	84.497470
3324.000000	84.534448
3322.000000	84.573004
3320.000000	84.611121
3318.000000	84.647482
3316.000000	84.680376
3314.000000	84.710675
3312.000000	84.743685
3310.000000	84.775419
3308.000000	84.803533
3306.000000	84.835045
3304.000000	84.876438
3302.000000	84.920739
3300.000000	84.958576
3298.000000	84.992481
3296.000000	85.025034
3294.000000	85.056478
3292.000000	85.090317
3290.000000	85.130859
3288.000000	85.172942
3286.000000	85.213035
3284.000000	85.250578
3282.000000	85.286950
3280.000000	85.324057
3278.000000	85.361527
3276.000000	85.398497
3274.000000	85.434262
3272.000000	85.472635
3270.000000	85.517009
3268.000000	85.562863
3266.000000	85.605934
3264.000000	85.650260
3262.000000	85.695619
3260.000000	85.738671
3258.000000	85.781097
3256.000000	85.824108
3254.000000	85.870010
3252.000000	85.920371
3250.000000	85.968730
3248.000000	86.012065
3246.000000	86.055988
3244.000000	86.106249
3242.000000	86.159264
3240.000000	86.212033
3238.000000	86.263274
3236.000000	86.309850
3234.000000	86.353332
3232.000000	86.402568
3230.000000	86.457408
3228.000000	86.509665
3226.000000	86.559953
3224.000000	86.607725
3222.000000	86.651326
3220.000000	86.697000
3218.000000	86.748533
3216.000000	86.798435
3214.000000	86.845397
3212.000000	86.894810
3210.000000	86.947011
3208.000000	87.005084
3206.000000	87.067586
3204.000000	87.133573
3202.000000	87.201912
3200.000000	87.270266
3198.000000	87.341060
3196.000000	87.415266
3194.000000	87.489615
3192.000000	87.563194
3190.000000	87.634518
3188.000000	87.703650
3186.000000	87.772202
3184.000000	87.843485
3182.000000	87.914973
3180.000000	87.983889
3178.000000	88.054374
3176.000000	88.127811
3174.000000	88.199798
3172.000000	88.271741
3170.000000	88.344163
3168.000000	88.418090
3166.000000	88.491961
3164.000000	88.566131
3162.000000	88.642867
3160.000000	88.721635
3158.000000	88.800587
3156.000000	88.877964
3154.000000	88.951440
3152.000000	89.028089
3150.000000	89.109955
3148.000000	89.188921
3146.000000	89.263781
3144.000000	89.338941
3142.000000	89.411009
3140.000000	89.479422
3138.000000	89.549979
3136.000000	89.621201
3134.000000	89.689027
3132.000000	89.756837
3130.000000	89.826495
3128.000000	89.891160
3126.000000	89.950634
3124.000000	90.007827
3122.000000	90.061522
3120.000000	90.114243
3118.000000	90.167283
3116.000000	90.221324
3114.000000	90.280505
3112.000000	90.337085
3110.000000	90.386008
3108.000000	90.439114
3106.000000	90.497879
3104.000000	90.553359
3102.000000	90.612065
3100.000000	90.678413
3098.000000	90.744280
3096.000000	90.807330
3094.000000	90.870960
3092.000000	90.934471
3090.000000	90.994969
3088.000000	91.052143
3086.000000	91.103997
3084.000000	91.152356
3082.000000	91.196509
3080.000000	91.235988
3078.000000	91.273919
3076.000000	91.310654
3074.000000	91.339223
3072.000000	91.357334
3070.000000	91.366996
3068.000000	91.372912
3066.000000	91.388806
3064.000000	91.422823
3062.000000	91.469927
3060.000000	91.524284
3058.000000	91.581273
3056.000000	91.641416
3054.000000	91.704324
3052.000000	91.763309
3050.000000	91.815034
3048.000000	91.861157
3046.000000	91.900229
3044.000000	91.932528
3042.000000	91.959066
3040.000000	91.982976
3038.000000	92.002871
3036.000000	92.013995
3034.000000	92.014051
3032.000000	91.999749
3030.000000	91.964925
3028.000000	91.898955
3026.000000	91.791836
3024.000000	91.660420
3022.000000	91.540303
3020.000000	91.473652
3018.000000	91.502102
3016.000000	91.644027
3014.000000	91.881063
3012.000000	92.167018
3010.000000	92.443346
3008.000000	92.668509
3006.000000	92.831041
3004.000000	92.943558
3002.000000	93.022449
3000.000000	93.078650
2998.000000	93.119711
2996.000000	93.149974
2994.000000	93.170362
2992.000000	93.180869
2990.000000	93.179025
2988.000000	93.163137
2986.000000	93.129092
2984.000000	93.071755
2982.000000	92.984240
2980.000000	92.863673
2978.000000	92.700897
2976.000000	92.475795
2974.000000	92.170017
2972.000000	91.773997
2970.000000	91.291533
2968.000000	90.766820
2966.000000	90.282509
2964.000000	89.927434
2962.000000	89.758272
2960.000000	89.772313
2958.000000	89.910214
2956.000000	90.097774
2954.000000	90.278982
2952.000000	90.421773
2950.000000	90.492347
2948.000000	90.456903
2946.000000	90.293066
2944.000000	89.996793
2942.000000	89.582047
2940.000000	89.086490
2938.000000	88.571226
2936.000000	88.096177
2934.000000	87.675406
2932.000000	87.277783
2930.000000	86.887372
2928.000000	86.555763
2926.000000	86.388878
2924.000000	86.494859
2922.000000	86.914271
2920.000000	87.591491
2918.000000	88.412892
2916.000000	89.270252
2914.000000	90.076984
2912.000000	90.769786
2910.000000	91.320865
2908.000000	91.748242
2906.000000	92.095474
2904.000000	92.398274
2902.000000	92.673381
2900.000000	92.929466
2898.000000	93.169778
2896.000000	93.396194
2894.000000	93.611666
2892.000000	93.815558
2890.000000	93.999706
2888.000000	94.161273
2886.000000	94.293432
2884.000000	94.382763
2882.000000	94.425356
2880.000000	94.422036
2878.000000	94.368609
2876.000000	94.257775
2874.000000	94.080252
2872.000000	93.825423
2870.000000	93.464278
2868.000000	92.975358
2866.000000	92.398167
2864.000000	91.855130
2862.000000	91.499412
2860.000000	91.423332
2858.000000	91.591614
2856.000000	91.893026
2854.000000	92.250426
2852.000000	92.663591
2850.000000	93.171593
2848.000000	93.776586
2846.000000	94.397211
2844.000000	94.940329
2842.000000	95.373994
2840.000000	95.713301
2838.000000	95.982767
2836.000000	96.202777
2834.000000	96.385642
2832.000000	96.541358
2830.000000	96.676756
2828.000000	96.799975
2826.000000	96.911371
2824.000000	97.013296
2822.000000	97.106954
2820.000000	97.190769
2818.000000	97.266152
2816.000000	97.337194
2814.000000	97.401711
2812.000000	97.460466
2810.000000	97.514367
2808.000000	97.562888
2806.000000	97.609265
2804.000000	97.655635
2802.000000	97.700339
2800.000000	97.743560
2798.000000	97.783091
2796.000000	97.824328
2794.000000	97.867678
2792.000000	97.913970
2790.000000	97.967807
2788.000000	98.036375
2786.000000	98.117616
2784.000000	98.201737
2782.000000	98.281776
2780.000000	98.355787
2778.000000	98.423154
2776.000000	98.486257
2774.000000	98.543871
2772.000000	98.597975
2770.000000	98.649592
2768.000000	98.700036
2766.000000	98.748046
2764.000000	98.795756
2762.000000	98.844208
2760.000000	98.891278
2758.000000	98.934995
2756.000000	98.976554
2754.000000	99.016196
2752.000000	99.057713
2750.000000	99.097665
2748.000000	99.133979
2746.000000	99.167961
2744.000000	99.201353
2742.000000	99.235121
2740.000000	99.271649
2738.000000	99.307185
2736.000000	99.341409
2734.000000	99.374307
2732.000000	99.407170
2730.000000	99.440058
2728.000000	99.473548
2726.000000	99.505303
2724.000000	99.537004
2722.000000	99.569790
2720.000000	99.601496
2718.000000	99.631143
2716.000000	99.661802
2714.000000	99.688949
2712.000000	99.713166
2710.000000	99.736655
2708.000000	99.759868
2706.000000	99.784328
2704.000000	99.813311
2702.000000	99.849115
2700.000000	99.891790
2698.000000	99.938051
2696.000000	99.986235
2694.000000	100.032522
2692.000000	100.077058
2690.000000	100.119479
2688.000000	100.160145
2686.000000	100.199336
2684.000000	100.238086
2682.000000	100.275139
2680.000000	100.310915
2678.000000	100.344641
2676.000000	100.376513
2674.000000	100.407499
2672.000000	100.438515
2670.000000	100.467670
2668.000000	100.497841
2666.000000	100.527416
2664.000000	100.556972
2662.000000	100.585132
2660.000000	100.613673
2658.000000	100.644981
2656.000000	100.680079
2654.000000	100.715463
2652.000000	100.752808
2650.000000	100.791301
2648.000000	100.828681
2646.000000	100.866704
2644.000000	100.905640
2642.000000	100.939996
2640.000000	100.975341
2638.000000	101.012950
2636.000000	101.049069
2634.000000	101.080324
2632.000000	101.110624
2630.000000	101.140683
2628.000000	101.169958
2626.000000	101.198346
2624.000000	101.227009
2622.000000	101.253192
2620.000000	101.279527
2618.000000	101.305969
2616.000000	101.331989
2614.000000	101.357982
2612.000000	101.382802
2610.000000	101.402122
2608.000000	101.421765
2606.000000	101.440815
2604.000000	101.456125
2602.000000	101.467458
2600.000000	101.479095
2598.000000	101.489600
2596.000000	101.499745
2594.000000	101.512568
2592.000000	101.535563
2590.000000	101.569035
2588.000000	101.610904
2586.000000	101.660520
2584.000000	101.719351
2582.000000	101.781125
2580.000000	101.843614
2578.000000	101.901878
2576.000000	101.953724
2574.000000	102.000009
2572.000000	102.043226
2570.000000	102.082538
2568.000000	102.120336
2566.000000	102.157747
2564.000000	102.192323
2562.000000	102.223823
2560.000000	102.253163
2558.000000	102.278459
2556.000000	102.305072
2554.000000	102.330800
2552.000000	102.355644
2550.000000	102.380455
2548.000000	102.406841
2546.000000	102.432465
2544.000000	102.460466
2542.000000	102.487090
2540.000000	102.513511
2538.000000	102.539609
2536.000000	102.565475
2534.000000	102.590780
2532.000000	102.616722
2530.000000	102.642889
2528.000000	102.670528
2526.000000	102.696109
2524.000000	102.720961
2522.000000	102.743243
2520.000000	102.767545
2518.000000	102.791794
2516.000000	102.814678
2514.000000	102.836251
2512.000000	102.860106
2510.000000	102.882104
2508.000000	102.902076
2506.000000	102.921468
2504.000000	102.942702
2502.000000	102.964416
2500.000000	102.986777
2498.000000	103.009227
2496.000000	103.035107
2494.000000	103.061937
2492.000000	103.088276
2490.000000	103.114853
2488.000000	103.143061
2486.000000	103.169105
2484.000000	103.196405
2482.000000	103.222352
2480.000000	103.247003
2478.000000	103.269461
2476.000000	103.292586
2474.000000	103.313832
2472.000000	103.334247
2470.000000	103.352469
2468.000000	103.371537
2466.000000	103.388815
2464.000000	103.404677
2462.000000	103.420592
2460.000000	103.436792
2458.000000	103.451463
2456.000000	103.469174
2454.000000	103.488193
2452.000000	103.505892
2450.000000	103.521769
2448.000000	103.537244
2446.000000	103.551392
2444.000000	103.567134
2442.000000	103.583592
2440.000000	103.599471
2438.000000	103.613095
2436.000000	103.627489
2434.000000	103.642328
2432.000000	103.655747
2430.000000	103.666228
2428.000000	103.677261
2426.000000	103.689737
2424.000000	103.707308
2422.000000	103.723380
2420.000000	103.737940
2418.000000	103.750182
2416.000000	103.762181
2414.000000	103.774823
2412.000000	103.787770
2410.000000	103.797352
2408.000000	103.809768
2406.000000	103.824290
2404.000000	103.839337
2402.000000	103.853205
2400.000000	103.869405
2398.000000	103.884468
2396.000000	103.903083
2394.000000	103.922463
2392.000000	103.940689
2390.000000	103.955436
2388.000000	103.967898
2386.000000	103.974435
2384.000000	103.972324
2382.000000	103.950761
2380.000000	103.901107
2378.000000	103.815455
2376.000000	103.693396
2374.000000	103.534472
2372.000000	103.349167
2370.000000	103.151959
2368.000000	102.964020
2366.000000	102.806593
2364.000000	102.702940
2362.000000	102.668895
2360.000000	102.715475
2358.000000	102.840036
2356.000000	103.040045
2354.000000	103.298148
2352.000000	103.582000
2350.000000	103.788885
2348.000000	103.780970
2346.000000	103.598667
2344.000000	103.403482
2342.000000	103.260715
2340.000000	103.178052
2338.000000	103.144070
2336.000000	103.145767
2334.000000	103.172337
2332.000000	103.221335
2330.000000	103.292223
2328.000000	103.379990
2326.000000	103.476405
2324.000000	103.577804
2322.000000	103.674612
2320.000000	103.768170
2318.000000	103.854837
2316.000000	103.932567
2314.000000	104.000347
2312.000000	104.060896
2310.000000	104.111006
2308.000000	104.152953
2306.000000	104.187151
2304.000000	104.216876
2302.000000	104.241024
2300.000000	104.262545
2298.000000	104.280019
2296.000000	104.296712
2294.000000	104.311086
2292.000000	104.324446
2290.000000	104.335004
2288.000000	104.345130
2286.000000	104.352223
2284.000000	104.357885
2282.000000	104.358649
2280.000000	104.358325
2278.000000	104.355896
2276.000000	104.351865
2274.000000	104.343893
2272.000000	104.338824
2270.000000	104.333215
2268.000000	104.328269
2266.000000	104.323364
2264.000000	104.319199
2262.000000	104.314244
2260.000000	104.312514
2258.000000	104.311758
2256.000000	104.312943
2254.000000	104.313656
2252.000000	104.318402
2250.000000	104.325230
2248.000000	104.333051
2246.000000	104.340026
2244.000000	104.350125
2242.000000	104.362529
2240.000000	104.376631
2238.000000	104.389131
2236.000000	104.404512
2234.000000	104.419386
2232.000000	104.434755
2230.000000	104.447236
2228.000000	104.460655
2226.000000	104.470740
2224.000000	104.480951
2222.000000	104.490106
2220.000000	104.498002
2218.000000	104.503737
2216.000000	104.511092
2214.000000	104.516791
2212.000000	104.522257
2210.000000	104.526342
2208.000000	104.531055
2206.000000	104.534654
2204.000000	104.541699
2202.000000	104.547615
2200.000000	104.552627
2198.000000	104.554159
2196.000000	104.556406
2194.000000	104.559579
2192.000000	104.563316
2190.000000	104.563411
2188.000000	104.563173
2186.000000	104.562127
2184.000000	104.561979
2182.000000	104.559776
2180.000000	104.559062
2178.000000	104.556506
2176.000000	104.555161
2174.000000	104.548146
2172.000000	104.525863
2170.000000	104.500532
2168.000000	104.510719
2166.000000	104.532240
2164.000000	104.540371
2162.000000	104.540428
2160.000000	104.539411
2158.000000	104.535636
2156.000000	104.536558
2154.000000	104.535551
2152.000000	104.533153
2150.000000	104.531981
2148.000000	104.533386
2146.000000	104.533508
2144.000000	104.535978
2142.000000	104.534061
2140.000000	104.531120
2138.000000	104.528582
2136.000000	104.526775
2134.000000	104.525509
2132.000000	104.523830
2130.000000	104.520096
2128.000000	104.519349
2126.000000	104.519595
2124.000000	104.520783
2122.000000	104.520952
2120.000000	104.523348
2118.000000	104.525898
2116.000000	104.528879
2114.000000	104.534725
2112.000000	104.545558
2110.000000	104.557959
2108.000000	104.571231
2106.000000	104.582115
2104.000000	104.594441
2102.000000	104.606694
2100.000000	104.617397
2098.000000	104.627902
2096.000000	104.643156
2094.000000	104.656540
2092.000000	104.667217
2090.000000	104.677721
2088.000000	104.696646
2086.000000	104.712819
2084.000000	104.730000
2082.000000	104.743942
2080.000000	104.759619
2078.000000	104.774296
2076.000000	104.792560
2074.000000	104.808256
2072.000000	104.825737
2070.000000	104.841950
2068.000000	104.858505
2066.000000	104.871278
2064.000000	104.895312
2062.000000	104.924733
2060.000000	104.948564
2058.000000	104.967565
2056.000000	104.987953
2054.000000	105.007925
2052.000000	105.030418
2050.000000	105.050525
2048.000000	105.070982
2046.000000	105.088815
2044.000000	105.105827
2042.000000	105.117345
2040.000000	105.135845
2038.000000	105.154417
2036.000000	105.167993
2034.000000	105.176521
2032.000000	105.177637
2030.000000	105.159603
2028.000000	105.166918
2026.000000	105.202938
2024.000000	105.227889
2022.000000	105.236067
2020.000000	105.235932
2018.000000	105.233813
2016.000000	105.254474
2014.000000	105.288048
2012.000000	105.312231
2010.000000	105.326419
2008.000000	105.339638
2006.000000	105.351156
2004.000000	105.363090
2002.000000	105.369869
2000.000000	105.374364
1998.000000	105.379800
1996.000000	105.382206
1994.000000	105.353062
1992.000000	105.327753
1990.000000	105.346516
1988.000000	105.365281
1986.000000	105.369060
1984.000000	105.366190
1982.000000	105.357013
1980.000000	105.347160
1978.000000	105.333215
1976.000000	105.317154
1974.000000	105.300851
1972.000000	105.284688
1970.000000	105.251970
1968.000000	105.202476
1966.000000	105.181325
1964.000000	105.178461
1962.000000	105.123162
1960.000000	105.000819
1958.000000	104.969297
1956.000000	105.051106
1954.000000	105.080214
1952.000000	105.059705
1950.000000	105.025346
1948.000000	105.001339
1946.000000	104.963660
1944.000000	104.893818
1942.000000	104.859585
1940.000000	104.898985
1938.000000	104.905455
1936.000000	104.884579
1934.000000	104.855628
1932.000000	104.829801
1930.000000	104.800716
1928.000000	104.772201
1926.000000	104.722712
1924.000000	104.648341
1922.000000	104.598598
1920.000000	104.517655
1918.000000	104.417354
1916.000000	104.466758
1914.000000	104.495072
1912.000000	104.438098
1910.000000	104.360433
1908.000000	104.316404
1906.000000	104.277977
1904.000000	104.232951
1902.000000	104.179188
1900.000000	104.132970
1898.000000	104.074930
1896.000000	104.015184
1894.000000	103.980812
1892.000000	103.934804
1890.000000	103.853000
1888.000000	103.869913
1886.000000	103.903797
1884.000000	103.897690
1882.000000	103.877200
1880.000000	103.856712
1878.000000	103.829498
1876.000000	103.807486
1874.000000	103.773802
1872.000000	103.667560
1870.000000	103.461414
1868.000000	103.427182
1866.000000	103.553190
1864.000000	103.614730
1862.000000	103.594370
1860.000000	103.561512
1858.000000	103.526867
1856.000000	103.500516
1854.000000	103.463909
1852.000000	103.425119
1850.000000	103.358548
1848.000000	103.243407
1846.000000	102.951695
1844.000000	102.766402
1842.000000	102.980058
1840.000000	103.118355
1838.000000	103.065744
1836.000000	103.012603
1834.000000	102.945528
1832.000000	102.755529
1830.000000	102.562229
1828.000000	102.572093
1826.000000	102.522228
1824.000000	102.506022
1822.000000	102.556727
1820.000000	102.521598
1818.000000	102.439736
1816.000000	102.377559
1814.000000	102.290475
1812.000000	102.151617
1810.000000	102.051030
1808.000000	102.011211
1806.000000	101.936949
1804.000000	101.788411
1802.000000	101.571936
1800.000000	101.444445
1798.000000	101.414362
1796.000000	101.289496
1794.000000	100.906218
1792.000000	100.678592
1790.000000	100.841983
1788.000000	100.907649
1786.000000	100.733743
1784.000000	100.601333
1782.000000	100.499985
1780.000000	100.394234
1778.000000	100.323533
1776.000000	100.105981
1774.000000	99.588323
1772.000000	99.314901
1770.000000	99.506903
1768.000000	99.599636
1766.000000	99.690245
1764.000000	99.558171
1762.000000	99.295682
1760.000000	99.274449
1758.000000	99.178071
1756.000000	99.038897
1754.000000	98.847550
1752.000000	98.365597
1750.000000	98.163472
1748.000000	98.225955
1746.000000	98.203448
1744.000000	98.051832
1742.000000	97.778953
1740.000000	97.519066
1738.000000	97.452427
1736.000000	96.886356
1734.000000	96.315771
1732.000000	96.801367
1730.000000	97.264639
1728.000000	97.358493
1726.000000	97.329420
1724.000000	97.245838
1722.000000	97.119063
1720.000000	96.583105
1718.000000	95.843405
1716.000000	95.948450
1714.000000	96.438755
1712.000000	96.653071
1710.000000	96.574963
1708.000000	96.335494
1706.000000	96.056943
1704.000000	95.892974
1702.000000	95.203288
1700.000000	94.687124
1698.000000	94.841167
1696.000000	94.765633
1694.000000	95.372974
1692.000000	95.904651
1690.000000	95.850486
1688.000000	95.546313
1686.000000	94.612644
1684.000000	94.249167
1682.000000	95.038709
1680.000000	95.479683
1678.000000	95.352759
1676.000000	94.939302
1674.000000	94.902988
1672.000000	94.904912
1670.000000	94.631187
1668.000000	94.734804
1666.000000	94.906735
1664.000000	94.674747
1662.000000	94.536261
1660.000000	94.640781
1658.000000	94.542327
1656.000000	93.750615
1654.000000	92.302767
1652.000000	92.355880
1650.000000	93.422606
1648.000000	93.314921
1646.000000	93.066190
1644.000000	93.428532
1642.000000	93.616996
1640.000000	93.422514
1638.000000	92.851496
1636.000000	92.182997
1634.000000	92.377769
1632.000000	92.739558
1630.000000	92.554030
1628.000000	92.203139
1626.000000	91.829516
1624.000000	91.295287
1622.000000	90.908218
1620.000000	90.498967
1618.000000	89.637533
1616.000000	89.166722
1614.000000	89.175970
1612.000000	88.709603
1610.000000	88.087246
1608.000000	87.763290
1606.000000	87.788829
1604.000000	87.983334
1602.000000	88.226787
1600.000000	88.462348
1598.000000	88.666069
1596.000000	88.814053
1594.000000	88.929796
1592.000000	88.995998
1590.000000	88.998637
1588.000000	88.958397
1586.000000	88.890916
1584.000000	88.815426
1582.000000	88.762022
1580.000000	88.645388
1578.000000	88.087322
1576.000000	87.683095
1574.000000	88.164088
1572.000000	88.293692
1570.000000	87.964034
1568.000000	87.943900
1566.000000	87.917478
1564.000000	87.635799
1562.000000	86.787696
1560.000000	85.472593
1558.000000	85.446019
1556.000000	86.336867
1554.000000	86.880039
1552.000000	87.322841
1550.000000	87.601778
1548.000000	87.780882
1546.000000	87.746112
1544.000000	87.543625
1542.000000	87.127429
1540.000000	86.924541
1538.000000	87.784758
1536.000000	88.637274
1534.000000	88.705850
1532.000000	88.940326
1530.000000	89.166699
1528.000000	89.054763
1526.000000	88.861991
1524.000000	88.607098
1522.000000	88.122674
1520.000000	88.153561
1518.000000	88.324540
1516.000000	88.226703
1514.000000	88.131091
1512.000000	87.936716
1510.000000	87.515181
1508.000000	86.496849
1506.000000	85.857755
1504.000000	85.914420
1502.000000	84.996589
1500.000000	82.571291
1498.000000	79.336025
1496.000000	76.819656
1494.000000	76.364924
1492.000000	77.457303
1490.000000	79.242654
1488.000000	81.171654
1486.000000	82.728732
1484.000000	83.747548
1482.000000	84.264097
1480.000000	84.503846
1478.000000	84.456222
1476.000000	84.169264
1474.000000	83.716558
1472.000000	83.521135
1470.000000	83.665414
1468.000000	83.484445
1466.000000	82.938627
1464.000000	82.552142
1462.000000	82.253071
1460.000000	81.363774
1458.000000	79.849101
1456.000000	78.813387
1454.000000	78.364884
1452.000000	77.856914
1450.000000	77.934728
1448.000000	78.772959
1446.000000	79.739000
1444.000000	80.219350
1442.000000	80.333475
1440.000000	80.251744
1438.000000	79.931679
1436.000000	79.912408
1434.000000	80.303653
1432.000000	80.383442
1430.000000	80.321019
1428.000000	80.344466
1426.000000	80.346591
1424.000000	80.249884
1422.000000	80.034696
1420.000000	79.573703
1418.000000	79.492725
1416.000000	79.618403
1414.000000	79.485114
1412.000000	79.132150
1410.000000	78.600813
1408.000000	77.846396
1406.000000	77.032606
1404.000000	76.564986
1402.000000	76.577112
1400.000000	76.814740
1398.000000	77.247347
1396.000000	77.628725
1394.000000	77.948567
1392.000000	78.262013
1390.000000	78.267411
1388.000000	77.962850
1386.000000	77.677110
1384.000000	77.571928
1382.000000	77.676971
1380.000000	77.777009
1378.000000	77.723769
1376.000000	77.568781
1374.000000	77.437161
1372.000000	77.398491
1370.000000	77.300549
1368.000000	77.143463
1366.000000	76.985207
1364.000000	76.761352
1362.000000	76.575602
1360.000000	76.474460
1358.000000	76.341414
1356.000000	76.148617
1354.000000	75.942387
1352.000000	75.732213
1350.000000	75.515761
1348.000000	75.298263
1346.000000	75.070135
1344.000000	74.821948
1342.000000	74.550711
1340.000000	74.298986
1338.000000	74.158883
1336.000000	74.081234
1334.000000	73.982236
1332.000000	73.830463
1330.000000	73.640164
1328.000000	73.417343
1326.000000	73.174476
1324.000000	72.911739
1322.000000	72.628031
1320.000000	72.321531
1318.000000	72.022166
1316.000000	71.723535
1314.000000	71.411166
1312.000000	71.099029
1310.000000	70.786914
1308.000000	70.459765
1306.000000	70.129092
1304.000000	69.788700
1302.000000	69.441670
1300.000000	69.096408
1298.000000	68.752862
1296.000000	68.397024
1294.000000	68.029956
1292.000000	67.647543
1290.000000	67.253432
1288.000000	66.849380
1286.000000	66.447437
1284.000000	66.034598
1282.000000	65.603736
1280.000000	65.145579
1278.000000	64.656257
1276.000000	64.116996
1274.000000	63.503444
1272.000000	62.775974
1270.000000	61.893676
1268.000000	60.792662
1266.000000	59.477105
1264.000000	58.109915
1262.000000	57.014404
1260.000000	56.467247
1258.000000	56.474932
1256.000000	56.764443
1254.000000	57.002507
1252.000000	56.991904
1250.000000	56.741868
1248.000000	56.342352
1246.000000	55.871000
1244.000000	55.363322
1242.000000	54.846595
1240.000000	54.337775
1238.000000	53.845610
1236.000000	53.367691
1234.000000	52.905674
1232.000000	52.451286
1230.000000	52.004863
1228.000000	51.560289
1226.000000	51.112248
1224.000000	50.650731
1222.000000	50.177610
1220.000000	49.686748
1218.000000	49.177693
1216.000000	48.654215
1214.000000	48.137496
1212.000000	47.646294
1210.000000	47.194009
1208.000000	46.774973
1206.000000	46.376408
1204.000000	45.980569
1202.000000	45.583453
1200.000000	45.189778
1198.000000	44.803156
1196.000000	44.411099
1194.000000	44.006719
1192.000000	43.589199
1190.000000	43.161555
1188.000000	42.718800
1186.000000	42.245725
1184.000000	41.662450
1182.000000	40.935299
1180.000000	40.368470
1178.000000	40.121673
1176.000000	39.890888
1174.000000	39.534037
1172.000000	39.106613
1170.000000	38.658807
1168.000000	38.193614
1166.000000	37.716973
1164.000000	37.244628
1162.000000	36.784053
1160.000000	36.325196
1158.000000	35.886219
1156.000000	35.465467
1154.000000	35.049769
1152.000000	34.625902
1150.000000	34.204077
1148.000000	33.771718
1146.000000	33.332347
1144.000000	32.902856
1142.000000	32.522979
1140.000000	32.209485
1138.000000	31.895623
1136.000000	31.534855
1134.000000	31.142786
1132.000000	30.729034
1130.000000	30.301403
1128.000000	29.878509
1126.000000	29.460399
1124.000000	29.028508
1122.000000	28.589264
1120.000000	28.140241
1118.000000	27.682362
1116.000000	27.216834
1114.000000	26.749297
1112.000000	26.282665
1110.000000	25.821549
1108.000000	25.366011
1106.000000	24.930155
1104.000000	24.514486
1102.000000	24.106700
1100.000000	23.691708
1098.000000	23.281507
1096.000000	22.884854
1094.000000	22.503881
1092.000000	22.137067
1090.000000	21.785740
1088.000000	21.443407
1086.000000	21.104318
1084.000000	20.755281
1082.000000	20.397833
1080.000000	20.058757
1078.000000	19.756016
1076.000000	19.479922
1074.000000	19.244613
1072.000000	19.027556
1070.000000	18.801637
1068.000000	18.566384
1066.000000	18.335443
1064.000000	18.106889
1062.000000	17.874922
1060.000000	17.626724
1058.000000	17.337376
1056.000000	16.947904
1054.000000	16.436314
1052.000000	15.929037
1050.000000	15.629891
1048.000000	15.595906
1046.000000	15.676052
1044.000000	15.675627
1042.000000	15.558290
1040.000000	15.371851
1038.000000	15.158913
1036.000000	14.931596
1034.000000	14.693990
1032.000000	14.445259
1030.000000	14.188490
1028.000000	13.924151
1026.000000	13.654896
1024.000000	13.383433
1022.000000	13.116782
1020.000000	12.861833
1018.000000	12.628327
1016.000000	12.415817
1014.000000	12.228722
1012.000000	12.057561
1010.000000	11.893143
1008.000000	11.725737
1006.000000	11.548872
1004.000000	11.353479
1002.000000	11.139587
1000.000000	10.910621
