PE IR       SUBTECH     SPECTRUM    ASCII       PEDS        4.00        
   -1
TE109A_047_115K_BG.ASC
20/04/21
15:59:04.00
20/04/21
15:59:04.00
Administrator
TE109A, Tuesday, April 21 2020, 047.
1000.000000
#HDR
-1
-1
#GR
cm-1
EGY
1.0
0.0
6000.000000
-2.000000
2501
8
105.285818
10.938078
#DATA
6000.000000	16.344538
5998.000000	16.376661
5996.000000	16.408508
5994.000000	16.441731
5992.000000	16.475737
5990.000000	16.509494
5988.000000	16.541579
5986.000000	16.572442
5984.000000	16.602481
5982.000000	16.635229
5980.000000	16.668252
5978.000000	16.702047
5976.000000	16.736100
5974.000000	16.770003
5972.000000	16.802875
5970.000000	16.835934
5968.000000	16.868206
5966.000000	16.902427
5964.000000	16.937870
5962.000000	16.972264
5960.000000	17.005394
5958.000000	17.037660
5956.000000	17.072591
5954.000000	17.110281
5952.000000	17.145088
5950.000000	17.177936
5948.000000	17.210239
5946.000000	17.242880
5944.000000	17.275380
5942.000000	17.307649
5940.000000	17.340162
5938.000000	17.374243
5936.000000	17.407164
5934.000000	17.437919
5932.000000	17.469851
5930.000000	17.503877
5928.000000	17.539734
5926.000000	17.575819
5924.000000	17.610682
5922.000000	17.645458
5920.000000	17.680340
5918.000000	17.717015
5916.000000	17.753228
5914.000000	17.790093
5912.000000	17.827562
5910.000000	17.864531
5908.000000	17.902162
5906.000000	17.938795
5904.000000	17.973722
5902.000000	18.008806
5900.000000	18.044740
5898.000000	18.080795
5896.000000	18.116956
5894.000000	18.153998
5892.000000	18.191477
5890.000000	18.228076
5888.000000	18.261203
5886.000000	18.294982
5884.000000	18.330531
5882.000000	18.367130
5880.000000	18.401767
5878.000000	18.437032
5876.000000	18.472190
5874.000000	18.508872
5872.000000	18.546297
5870.000000	18.583118
5868.000000	18.619213
5866.000000	18.654961
5864.000000	18.690909
5862.000000	18.728511
5860.000000	18.766922
5858.000000	18.806275
5856.000000	18.843683
5854.000000	18.878378
5852.000000	18.914635
5850.000000	18.952963
5848.000000	18.992128
5846.000000	19.031759
5844.000000	19.071543
5842.000000	19.111959
5840.000000	19.152200
5838.000000	19.192815
5836.000000	19.236725
5834.000000	19.282204
5832.000000	19.325406
5830.000000	19.365451
5828.000000	19.404184
5826.000000	19.444290
5824.000000	19.485194
5822.000000	19.525838
5820.000000	19.566301
5818.000000	19.606728
5816.000000	19.645539
5814.000000	19.682829
5812.000000	19.722524
5810.000000	19.763943
5808.000000	19.806229
5806.000000	19.847186
5804.000000	19.886575
5802.000000	19.926515
5800.000000	19.967278
5798.000000	20.009253
5796.000000	20.051236
5794.000000	20.092538
5792.000000	20.131464
5790.000000	20.172375
5788.000000	20.214032
5786.000000	20.257032
5784.000000	20.299641
5782.000000	20.340272
5780.000000	20.380713
5778.000000	20.420943
5776.000000	20.460330
5774.000000	20.501125
5772.000000	20.542499
5770.000000	20.585283
5768.000000	20.627425
5766.000000	20.669356
5764.000000	20.711797
5762.000000	20.753502
5760.000000	20.794275
5758.000000	20.834663
5756.000000	20.876701
5754.000000	20.920136
5752.000000	20.961583
5750.000000	21.001839
5748.000000	21.041745
5746.000000	21.083573
5744.000000	21.124705
5742.000000	21.165396
5740.000000	21.206344
5738.000000	21.247388
5736.000000	21.287865
5734.000000	21.327189
5732.000000	21.366786
5730.000000	21.408299
5728.000000	21.449331
5726.000000	21.488251
5724.000000	21.528242
5722.000000	21.570937
5720.000000	21.615002
5718.000000	21.658380
5716.000000	21.700168
5714.000000	21.742613
5712.000000	21.785342
5710.000000	21.829549
5708.000000	21.872967
5706.000000	21.915598
5704.000000	21.957778
5702.000000	22.002351
5700.000000	22.047548
5698.000000	22.092513
5696.000000	22.137196
5694.000000	22.183304
5692.000000	22.226496
5690.000000	22.268729
5688.000000	22.312913
5686.000000	22.360257
5684.000000	22.407556
5682.000000	22.453259
5680.000000	22.497851
5678.000000	22.543892
5676.000000	22.589921
5674.000000	22.635717
5672.000000	22.681296
5670.000000	22.725847
5668.000000	22.769760
5666.000000	22.813408
5664.000000	22.857342
5662.000000	22.901999
5660.000000	22.948338
5658.000000	22.995434
5656.000000	23.040843
5654.000000	23.084690
5652.000000	23.129788
5650.000000	23.178060
5648.000000	23.224440
5646.000000	23.268003
5644.000000	23.311046
5642.000000	23.356681
5640.000000	23.402988
5638.000000	23.446782
5636.000000	23.490782
5634.000000	23.535472
5632.000000	23.580751
5630.000000	23.626980
5628.000000	23.672420
5626.000000	23.717756
5624.000000	23.761220
5622.000000	23.805371
5620.000000	23.852413
5618.000000	23.900486
5616.000000	23.948442
5614.000000	23.993573
5612.000000	24.037013
5610.000000	24.080326
5608.000000	24.124676
5606.000000	24.169831
5604.000000	24.216102
5602.000000	24.263615
5600.000000	24.310595
5598.000000	24.356953
5596.000000	24.401738
5594.000000	24.446626
5592.000000	24.491650
5590.000000	24.538069
5588.000000	24.585700
5586.000000	24.634284
5584.000000	24.682492
5582.000000	24.729610
5580.000000	24.774975
5578.000000	24.820189
5576.000000	24.865753
5574.000000	24.913155
5572.000000	24.961382
5570.000000	25.011066
5568.000000	25.059251
5566.000000	25.105761
5564.000000	25.151021
5562.000000	25.197509
5560.000000	25.245288
5558.000000	25.292488
5556.000000	25.339052
5554.000000	25.385597
5552.000000	25.433587
5550.000000	25.482119
5548.000000	25.528932
5546.000000	25.576148
5544.000000	25.623566
5542.000000	25.671585
5540.000000	25.718493
5538.000000	25.766311
5536.000000	25.815643
5534.000000	25.862798
5532.000000	25.908364
5530.000000	25.955421
5528.000000	26.003741
5526.000000	26.049486
5524.000000	26.093005
5522.000000	26.140660
5520.000000	26.190069
5518.000000	26.237982
5516.000000	26.284226
5514.000000	26.333140
5512.000000	26.381600
5510.000000	26.425492
5508.000000	26.468361
5506.000000	26.514576
5504.000000	26.565601
5502.000000	26.617893
5500.000000	26.669240
5498.000000	26.715671
5496.000000	26.756947
5494.000000	26.800334
5492.000000	26.847243
5490.000000	26.897233
5488.000000	26.947424
5486.000000	27.000764
5484.000000	27.056240
5482.000000	27.107964
5480.000000	27.152122
5478.000000	27.192430
5476.000000	27.236133
5474.000000	27.287588
5472.000000	27.341609
5470.000000	27.393179
5468.000000	27.441439
5466.000000	27.488654
5464.000000	27.535597
5462.000000	27.582926
5460.000000	27.632502
5458.000000	27.685569
5456.000000	27.739377
5454.000000	27.790880
5452.000000	27.836735
5450.000000	27.880741
5448.000000	27.921971
5446.000000	27.965286
5444.000000	28.009973
5442.000000	28.061549
5440.000000	28.115531
5438.000000	28.164746
5436.000000	28.211784
5434.000000	28.259114
5432.000000	28.304977
5430.000000	28.351307
5428.000000	28.403111
5426.000000	28.463652
5424.000000	28.523867
5422.000000	28.579660
5420.000000	28.628924
5418.000000	28.666912
5416.000000	28.698507
5414.000000	28.736657
5412.000000	28.785931
5410.000000	28.843759
5408.000000	28.901521
5406.000000	28.959112
5404.000000	29.013459
5402.000000	29.062642
5400.000000	29.107955
5398.000000	29.149599
5396.000000	29.190482
5394.000000	29.238992
5392.000000	29.297771
5390.000000	29.357099
5388.000000	29.405797
5386.000000	29.452743
5384.000000	29.505793
5382.000000	29.560202
5380.000000	29.605071
5378.000000	29.645915
5376.000000	29.693619
5374.000000	29.753744
5372.000000	29.816135
5370.000000	29.870793
5368.000000	29.917571
5366.000000	29.964167
5364.000000	30.014721
5362.000000	30.067895
5360.000000	30.121139
5358.000000	30.167874
5356.000000	30.207382
5354.000000	30.249860
5352.000000	30.300756
5350.000000	30.354657
5348.000000	30.397266
5346.000000	30.436961
5344.000000	30.484455
5342.000000	30.536521
5340.000000	30.586802
5338.000000	30.640402
5336.000000	30.701419
5334.000000	30.762540
5332.000000	30.814050
5330.000000	30.860153
5328.000000	30.908143
5326.000000	30.962408
5324.000000	31.020555
5322.000000	31.074502
5320.000000	31.125123
5318.000000	31.177405
5316.000000	31.232101
5314.000000	31.286315
5312.000000	31.334090
5310.000000	31.376399
5308.000000	31.420331
5306.000000	31.471523
5304.000000	31.526322
5302.000000	31.579496
5300.000000	31.633036
5298.000000	31.686751
5296.000000	31.736408
5294.000000	31.782415
5292.000000	31.830750
5290.000000	31.883920
5288.000000	31.937154
5286.000000	31.989103
5284.000000	32.042554
5282.000000	32.097915
5280.000000	32.151565
5278.000000	32.204962
5276.000000	32.259304
5274.000000	32.311605
5272.000000	32.359776
5270.000000	32.407392
5268.000000	32.452290
5266.000000	32.493298
5264.000000	32.538693
5262.000000	32.596460
5260.000000	32.658274
5258.000000	32.711670
5256.000000	32.760575
5254.000000	32.812588
5252.000000	32.862046
5250.000000	32.905222
5248.000000	32.948338
5246.000000	33.001589
5244.000000	33.063956
5242.000000	33.128401
5240.000000	33.188964
5238.000000	33.243253
5236.000000	33.293454
5234.000000	33.341907
5232.000000	33.389134
5230.000000	33.437136
5228.000000	33.483709
5226.000000	33.532009
5224.000000	33.586719
5222.000000	33.646011
5220.000000	33.701157
5218.000000	33.753078
5216.000000	33.809304
5214.000000	33.866931
5212.000000	33.914799
5210.000000	33.952369
5208.000000	33.992158
5206.000000	34.047440
5204.000000	34.113777
5202.000000	34.178091
5200.000000	34.231246
5198.000000	34.280222
5196.000000	34.332540
5194.000000	34.388293
5192.000000	34.443354
5190.000000	34.497489
5188.000000	34.548159
5186.000000	34.599638
5184.000000	34.654753
5182.000000	34.714057
5180.000000	34.771280
5178.000000	34.825521
5176.000000	34.879808
5174.000000	34.933383
5172.000000	34.985664
5170.000000	35.039092
5168.000000	35.093834
5166.000000	35.148059
5164.000000	35.201323
5162.000000	35.255748
5160.000000	35.311801
5158.000000	35.367703
5156.000000	35.422263
5154.000000	35.475556
5152.000000	35.527855
5150.000000	35.583018
5148.000000	35.639752
5146.000000	35.695796
5144.000000	35.748331
5142.000000	35.801093
5140.000000	35.855225
5138.000000	35.909693
5136.000000	35.963120
5134.000000	36.017628
5132.000000	36.073104
5130.000000	36.128612
5128.000000	36.180855
5126.000000	36.232582
5124.000000	36.286415
5122.000000	36.341452
5120.000000	36.394508
5118.000000	36.447454
5116.000000	36.502804
5114.000000	36.558881
5112.000000	36.613481
5110.000000	36.666882
5108.000000	36.720552
5106.000000	36.776331
5104.000000	36.833152
5102.000000	36.889581
5100.000000	36.944760
5098.000000	37.000385
5096.000000	37.056011
5094.000000	37.112057
5092.000000	37.167486
5090.000000	37.223792
5088.000000	37.278878
5086.000000	37.333979
5084.000000	37.388585
5082.000000	37.445154
5080.000000	37.502876
5078.000000	37.561883
5076.000000	37.619154
5074.000000	37.675013
5072.000000	37.731436
5070.000000	37.789182
5068.000000	37.845649
5066.000000	37.900806
5064.000000	37.955521
5062.000000	38.011788
5060.000000	38.069356
5058.000000	38.125787
5056.000000	38.180962
5054.000000	38.237850
5052.000000	38.295507
5050.000000	38.350958
5048.000000	38.404300
5046.000000	38.458514
5044.000000	38.514743
5042.000000	38.571567
5040.000000	38.627739
5038.000000	38.684420
5036.000000	38.741603
5034.000000	38.797957
5032.000000	38.851494
5030.000000	38.905880
5028.000000	38.962275
5026.000000	39.019611
5024.000000	39.074506
5022.000000	39.128436
5020.000000	39.183325
5018.000000	39.240835
5016.000000	39.298593
5014.000000	39.355501
5012.000000	39.412403
5010.000000	39.471066
5008.000000	39.528698
5006.000000	39.583554
5004.000000	39.638381
5002.000000	39.696660
5000.000000	39.755126
4998.000000	39.813053
4996.000000	39.870805
4994.000000	39.928356
4992.000000	39.984329
4990.000000	40.042760
4988.000000	40.103369
4986.000000	40.162293
4984.000000	40.217991
4982.000000	40.276163
4980.000000	40.336905
4978.000000	40.396176
4976.000000	40.451414
4974.000000	40.506535
4972.000000	40.565355
4970.000000	40.625419
4968.000000	40.682984
4966.000000	40.739400
4964.000000	40.797675
4962.000000	40.857354
4960.000000	40.913405
4958.000000	40.968083
4956.000000	41.024069
4954.000000	41.081198
4952.000000	41.136638
4950.000000	41.192704
4948.000000	41.251246
4946.000000	41.310164
4944.000000	41.366753
4942.000000	41.422117
4940.000000	41.477820
4938.000000	41.534489
4936.000000	41.591436
4934.000000	41.647363
4932.000000	41.702667
4930.000000	41.759492
4928.000000	41.818805
4926.000000	41.877811
4924.000000	41.934570
4922.000000	41.990827
4920.000000	42.046931
4918.000000	42.105616
4916.000000	42.164797
4914.000000	42.222876
4912.000000	42.278846
4910.000000	42.336933
4908.000000	42.395699
4906.000000	42.453906
4904.000000	42.510401
4902.000000	42.568260
4900.000000	42.627297
4898.000000	42.686930
4896.000000	42.745389
4894.000000	42.803047
4892.000000	42.860535
4890.000000	42.919838
4888.000000	42.981008
4886.000000	43.042099
4884.000000	43.101067
4882.000000	43.160018
4880.000000	43.218926
4878.000000	43.277709
4876.000000	43.334980
4874.000000	43.392783
4872.000000	43.451211
4870.000000	43.509818
4868.000000	43.567748
4866.000000	43.626723
4864.000000	43.685842
4862.000000	43.743248
4860.000000	43.799282
4858.000000	43.857053
4856.000000	43.916726
4854.000000	43.975581
4852.000000	44.032409
4850.000000	44.090643
4848.000000	44.149617
4846.000000	44.207833
4844.000000	44.265623
4842.000000	44.324734
4840.000000	44.381376
4838.000000	44.437832
4836.000000	44.496335
4834.000000	44.555209
4832.000000	44.612155
4830.000000	44.668519
4828.000000	44.726194
4826.000000	44.786069
4824.000000	44.845396
4822.000000	44.901727
4820.000000	44.957377
4818.000000	45.016924
4816.000000	45.076650
4814.000000	45.134361
4812.000000	45.192124
4810.000000	45.251454
4808.000000	45.310565
4806.000000	45.371340
4804.000000	45.433492
4802.000000	45.493990
4800.000000	45.552474
4798.000000	45.612433
4796.000000	45.673589
4794.000000	45.734495
4792.000000	45.793450
4790.000000	45.851898
4788.000000	45.911823
4786.000000	45.972916
4784.000000	46.033644
4782.000000	46.094471
4780.000000	46.154533
4778.000000	46.214382
4776.000000	46.274640
4774.000000	46.334462
4772.000000	46.392050
4770.000000	46.451229
4768.000000	46.511814
4766.000000	46.572000
4764.000000	46.631459
4762.000000	46.691549
4760.000000	46.750265
4758.000000	46.808529
4756.000000	46.865864
4754.000000	46.923507
4752.000000	46.981923
4750.000000	47.040433
4748.000000	47.097390
4746.000000	47.155587
4744.000000	47.214421
4742.000000	47.272339
4740.000000	47.330086
4738.000000	47.387783
4736.000000	47.444505
4734.000000	47.502455
4732.000000	47.561403
4730.000000	47.620887
4728.000000	47.680691
4726.000000	47.741425
4724.000000	47.800586
4722.000000	47.860423
4720.000000	47.920824
4718.000000	47.981672
4716.000000	48.041821
4714.000000	48.102981
4712.000000	48.165222
4710.000000	48.228380
4708.000000	48.291682
4706.000000	48.353956
4704.000000	48.414846
4702.000000	48.476447
4700.000000	48.540451
4698.000000	48.605894
4696.000000	48.668508
4694.000000	48.728776
4692.000000	48.789307
4690.000000	48.851868
4688.000000	48.914197
4686.000000	48.976659
4684.000000	49.037110
4682.000000	49.095685
4680.000000	49.155395
4678.000000	49.218900
4676.000000	49.281514
4674.000000	49.341656
4672.000000	49.401795
4670.000000	49.462972
4668.000000	49.522604
4666.000000	49.582934
4664.000000	49.645626
4662.000000	49.708147
4660.000000	49.766598
4658.000000	49.824791
4656.000000	49.884766
4654.000000	49.945982
4652.000000	50.006929
4650.000000	50.068873
4648.000000	50.130176
4646.000000	50.190517
4644.000000	50.250784
4642.000000	50.313508
4640.000000	50.376975
4638.000000	50.437942
4636.000000	50.496609
4634.000000	50.556914
4632.000000	50.618676
4630.000000	50.681249
4628.000000	50.742627
4626.000000	50.802804
4624.000000	50.862238
4622.000000	50.924138
4620.000000	50.988260
4618.000000	51.051607
4616.000000	51.112581
4614.000000	51.175508
4612.000000	51.239506
4610.000000	51.303690
4608.000000	51.369494
4606.000000	51.437461
4604.000000	51.502975
4602.000000	51.565974
4600.000000	51.629125
4598.000000	51.695811
4596.000000	51.762458
4594.000000	51.826589
4592.000000	51.888586
4590.000000	51.952051
4588.000000	52.016986
4586.000000	52.081189
4584.000000	52.142135
4582.000000	52.204936
4580.000000	52.271705
4578.000000	52.337865
4576.000000	52.400115
4574.000000	52.463779
4572.000000	52.529062
4570.000000	52.593243
4568.000000	52.657637
4566.000000	52.722593
4564.000000	52.784509
4562.000000	52.846441
4560.000000	52.908818
4558.000000	52.970343
4556.000000	53.032171
4554.000000	53.096579
4552.000000	53.159954
4550.000000	53.221429
4548.000000	53.282584
4546.000000	53.345842
4544.000000	53.408990
4542.000000	53.470911
4540.000000	53.532959
4538.000000	53.596732
4536.000000	53.660631
4534.000000	53.724859
4532.000000	53.787730
4530.000000	53.848141
4528.000000	53.908028
4526.000000	53.973349
4524.000000	54.040888
4522.000000	54.106085
4520.000000	54.169423
4518.000000	54.234260
4516.000000	54.298787
4514.000000	54.362950
4512.000000	54.426282
4510.000000	54.489887
4508.000000	54.555324
4506.000000	54.622946
4504.000000	54.690546
4502.000000	54.757552
4500.000000	54.822204
4498.000000	54.885785
4496.000000	54.950006
4494.000000	55.015771
4492.000000	55.082038
4490.000000	55.149516
4488.000000	55.215648
4486.000000	55.279766
4484.000000	55.342807
4482.000000	55.406809
4480.000000	55.469938
4478.000000	55.533644
4476.000000	55.598741
4474.000000	55.662934
4472.000000	55.723945
4470.000000	55.786869
4468.000000	55.851392
4466.000000	55.915017
4464.000000	55.977704
4462.000000	56.040169
4460.000000	56.100203
4458.000000	56.159293
4456.000000	56.219937
4454.000000	56.284793
4452.000000	56.350673
4450.000000	56.413767
4448.000000	56.473810
4446.000000	56.536031
4444.000000	56.599709
4442.000000	56.661864
4440.000000	56.722670
4438.000000	56.784563
4436.000000	56.846336
4434.000000	56.910355
4432.000000	56.974999
4430.000000	57.037918
4428.000000	57.099674
4426.000000	57.162742
4424.000000	57.226381
4422.000000	57.290559
4420.000000	57.353431
4418.000000	57.416417
4416.000000	57.481149
4414.000000	57.548507
4412.000000	57.615237
4410.000000	57.680424
4408.000000	57.743783
4406.000000	57.806136
4404.000000	57.868877
4402.000000	57.934366
4400.000000	57.999702
4398.000000	58.064498
4396.000000	58.128281
4394.000000	58.192083
4392.000000	58.255609
4390.000000	58.318688
4388.000000	58.380329
4386.000000	58.441592
4384.000000	58.501720
4382.000000	58.562483
4380.000000	58.623212
4378.000000	58.684583
4376.000000	58.745819
4374.000000	58.807622
4372.000000	58.868723
4370.000000	58.927201
4368.000000	58.984832
4366.000000	59.045708
4364.000000	59.106833
4362.000000	59.169614
4360.000000	59.234593
4358.000000	59.297179
4356.000000	59.357317
4354.000000	59.421335
4352.000000	59.484876
4350.000000	59.545424
4348.000000	59.607122
4346.000000	59.671972
4344.000000	59.735300
4342.000000	59.797435
4340.000000	59.860278
4338.000000	59.925246
4336.000000	59.989344
4334.000000	60.052104
4332.000000	60.115060
4330.000000	60.180247
4328.000000	60.247016
4326.000000	60.315118
4324.000000	60.381737
4322.000000	60.446947
4320.000000	60.513664
4318.000000	60.581870
4316.000000	60.649046
4314.000000	60.718036
4312.000000	60.786672
4310.000000	60.852414
4308.000000	60.917953
4306.000000	60.984440
4304.000000	61.048085
4302.000000	61.112609
4300.000000	61.180838
4298.000000	61.248617
4296.000000	61.312567
4294.000000	61.376878
4292.000000	61.441995
4290.000000	61.507674
4288.000000	61.571908
4286.000000	61.633247
4284.000000	61.693758
4282.000000	61.756461
4280.000000	61.818612
4278.000000	61.878536
4276.000000	61.934569
4274.000000	61.990196
4272.000000	62.050380
4270.000000	62.113069
4268.000000	62.172397
4266.000000	62.230939
4264.000000	62.292138
4262.000000	62.355765
4260.000000	62.418047
4258.000000	62.479398
4256.000000	62.543412
4254.000000	62.609140
4252.000000	62.672223
4250.000000	62.735808
4248.000000	62.800294
4246.000000	62.863697
4244.000000	62.926907
4242.000000	62.991335
4240.000000	63.055867
4238.000000	63.120269
4236.000000	63.183591
4234.000000	63.247284
4232.000000	63.311655
4230.000000	63.377723
4228.000000	63.443199
4226.000000	63.508009
4224.000000	63.573598
4222.000000	63.637997
4220.000000	63.699990
4218.000000	63.765432
4216.000000	63.832551
4214.000000	63.898211
4212.000000	63.961725
4210.000000	64.025602
4208.000000	64.091638
4206.000000	64.159986
4204.000000	64.228147
4202.000000	64.296875
4200.000000	64.364516
4198.000000	64.431216
4196.000000	64.497959
4194.000000	64.566376
4192.000000	64.634583
4190.000000	64.702520
4188.000000	64.770879
4186.000000	64.840499
4184.000000	64.909216
4182.000000	64.975929
4180.000000	65.040308
4178.000000	65.104671
4176.000000	65.170189
4174.000000	65.236928
4172.000000	65.302268
4170.000000	65.366865
4168.000000	65.430750
4166.000000	65.493826
4164.000000	65.556461
4162.000000	65.621812
4160.000000	65.687944
4158.000000	65.751301
4156.000000	65.813554
4154.000000	65.878129
4152.000000	65.943031
4150.000000	66.008983
4148.000000	66.075516
4146.000000	66.141867
4144.000000	66.207379
4142.000000	66.273156
4140.000000	66.338585
4138.000000	66.404851
4136.000000	66.470502
4134.000000	66.535194
4132.000000	66.600665
4130.000000	66.668085
4128.000000	66.735076
4126.000000	66.801308
4124.000000	66.865108
4122.000000	66.928146
4120.000000	66.994092
4118.000000	67.063139
4116.000000	67.130103
4114.000000	67.195995
4112.000000	67.261506
4110.000000	67.326444
4108.000000	67.390948
4106.000000	67.456437
4104.000000	67.523042
4102.000000	67.589375
4100.000000	67.653017
4098.000000	67.716794
4096.000000	67.779947
4094.000000	67.843752
4092.000000	67.909667
4090.000000	67.976673
4088.000000	68.043691
4086.000000	68.113645
4084.000000	68.184233
4082.000000	68.252363
4080.000000	68.319805
4078.000000	68.389931
4076.000000	68.458268
4074.000000	68.522674
4072.000000	68.585978
4070.000000	68.651744
4068.000000	68.718289
4066.000000	68.783321
4064.000000	68.846181
4062.000000	68.910269
4060.000000	68.975599
4058.000000	69.041694
4056.000000	69.108128
4054.000000	69.173458
4052.000000	69.237184
4050.000000	69.301195
4048.000000	69.363155
4046.000000	69.424911
4044.000000	69.490722
4042.000000	69.560829
4040.000000	69.630332
4038.000000	69.697168
4036.000000	69.762485
4034.000000	69.828171
4032.000000	69.893196
4030.000000	69.960980
4028.000000	70.030087
4026.000000	70.096913
4024.000000	70.165114
4022.000000	70.234658
4020.000000	70.301980
4018.000000	70.372042
4016.000000	70.443112
4014.000000	70.511726
4012.000000	70.579656
4010.000000	70.647572
4008.000000	70.714140
4006.000000	70.782428
4004.000000	70.852963
4002.000000	70.922974
4000.000000	70.989856
3998.000000	71.053954
3996.000000	71.117090
3994.000000	71.180347
3992.000000	71.243732
3990.000000	71.310840
3988.000000	71.378941
3986.000000	71.444585
3984.000000	71.507664
3982.000000	71.570083
3980.000000	71.633293
3978.000000	71.695195
3976.000000	71.754389
3974.000000	71.815550
3972.000000	71.877836
3970.000000	71.940270
3968.000000	72.004389
3966.000000	72.068063
3964.000000	72.123988
3962.000000	72.178137
3960.000000	72.239137
3958.000000	72.304264
3956.000000	72.367941
3954.000000	72.424450
3952.000000	72.467889
3950.000000	72.509903
3948.000000	72.569677
3946.000000	72.634085
3944.000000	72.686234
3942.000000	72.757397
3940.000000	72.852196
3938.000000	72.934252
3936.000000	72.977215
3934.000000	72.991624
3932.000000	73.034913
3930.000000	73.127594
3928.000000	73.210885
3926.000000	73.263251
3924.000000	73.322750
3922.000000	73.381136
3920.000000	73.405220
3918.000000	73.442267
3916.000000	73.555025
3914.000000	73.702244
3912.000000	73.810631
3910.000000	73.867136
3908.000000	73.839689
3906.000000	73.711991
3904.000000	73.605934
3902.000000	73.634458
3900.000000	73.794844
3898.000000	74.037380
3896.000000	74.218856
3894.000000	74.218608
3892.000000	74.179302
3890.000000	74.247757
3888.000000	74.261919
3886.000000	74.238822
3884.000000	74.353261
3882.000000	74.478136
3880.000000	74.586503
3878.000000	74.725514
3876.000000	74.773661
3874.000000	74.712322
3872.000000	74.572638
3870.000000	74.533851
3868.000000	74.692902
3866.000000	74.827878
3864.000000	74.928798
3862.000000	75.104854
3860.000000	75.254542
3858.000000	75.100549
3856.000000	74.491020
3854.000000	74.070614
3852.000000	74.483467
3850.000000	75.242693
3848.000000	75.669485
3846.000000	75.746428
3844.000000	75.699758
3842.000000	75.587360
3840.000000	75.348949
3838.000000	75.240015
3836.000000	75.488922
3834.000000	75.814950
3832.000000	76.019354
3830.000000	76.177774
3828.000000	76.287242
3826.000000	76.323147
3824.000000	76.204654
3822.000000	76.046756
3820.000000	76.069030
3818.000000	76.074611
3816.000000	76.136258
3814.000000	76.503531
3812.000000	76.833541
3810.000000	76.811431
3808.000000	76.641355
3806.000000	76.638799
3804.000000	76.601086
3802.000000	76.498392
3800.000000	76.706041
3798.000000	77.036156
3796.000000	77.244360
3794.000000	77.417830
3792.000000	77.545337
3790.000000	77.611180
3788.000000	77.645815
3786.000000	77.675002
3784.000000	77.715158
3782.000000	77.728906
3780.000000	77.739484
3778.000000	77.839081
3776.000000	77.974877
3774.000000	78.023007
3772.000000	77.954389
3770.000000	77.912693
3768.000000	77.988492
3766.000000	78.106614
3764.000000	78.216553
3762.000000	78.246634
3760.000000	78.224832
3758.000000	78.271836
3756.000000	78.232792
3754.000000	77.877478
3752.000000	77.485043
3750.000000	77.515632
3748.000000	77.701639
3746.000000	77.582385
3744.000000	77.703987
3742.000000	78.313252
3740.000000	78.650208
3738.000000	78.514506
3736.000000	78.376346
3734.000000	78.466158
3732.000000	78.726519
3730.000000	79.028141
3728.000000	79.173989
3726.000000	79.211720
3724.000000	79.278270
3722.000000	79.377763
3720.000000	79.500017
3718.000000	79.608466
3716.000000	79.587153
3714.000000	79.372947
3712.000000	79.236553
3710.000000	79.414494
3708.000000	79.729485
3706.000000	79.928745
3704.000000	79.950682
3702.000000	79.950891
3700.000000	80.062516
3698.000000	80.193397
3696.000000	80.246681
3694.000000	80.180419
3692.000000	79.933791
3690.000000	79.647796
3688.000000	79.735850
3686.000000	80.177794
3684.000000	80.490677
3682.000000	80.542294
3680.000000	80.406329
3678.000000	80.046061
3676.000000	79.783926
3674.000000	79.900690
3672.000000	79.994149
3670.000000	80.091957
3668.000000	80.464575
3666.000000	80.813172
3664.000000	80.952775
3662.000000	80.985923
3660.000000	80.933625
3658.000000	80.782897
3656.000000	80.732925
3654.000000	80.756577
3652.000000	80.520778
3650.000000	80.239722
3648.000000	80.376895
3646.000000	80.791898
3644.000000	81.087376
3642.000000	81.193666
3640.000000	81.229603
3638.000000	81.243605
3636.000000	81.226176
3634.000000	81.154228
3632.000000	80.897073
3630.000000	80.567320
3628.000000	80.654275
3626.000000	81.057344
3624.000000	81.258929
3622.000000	81.155568
3620.000000	80.999126
3618.000000	81.031391
3616.000000	81.130811
3614.000000	81.124888
3612.000000	81.067144
3610.000000	81.025458
3608.000000	81.097296
3606.000000	81.265828
3604.000000	81.360784
3602.000000	81.354341
3600.000000	81.332881
3598.000000	81.313068
3596.000000	81.286944
3594.000000	81.295116
3592.000000	81.284454
3590.000000	81.159361
3588.000000	81.058067
3586.000000	81.144969
3584.000000	81.295670
3582.000000	81.361443
3580.000000	81.365288
3578.000000	81.361220
3576.000000	81.359623
3574.000000	81.357964
3572.000000	81.320065
3570.000000	81.187764
3568.000000	81.052563
3566.000000	81.079292
3564.000000	81.199445
3562.000000	81.268925
3560.000000	81.291399
3558.000000	81.303139
3556.000000	81.291536
3554.000000	81.257099
3552.000000	81.239147
3550.000000	81.227705
3548.000000	81.181511
3546.000000	81.145776
3544.000000	81.165086
3542.000000	81.202129
3540.000000	81.209372
3538.000000	81.183654
3536.000000	81.159847
3534.000000	81.148789
3532.000000	81.118692
3530.000000	81.065000
3528.000000	81.013027
3526.000000	80.970051
3524.000000	80.932389
3522.000000	80.911795
3520.000000	80.897599
3518.000000	80.872652
3516.000000	80.841951
3514.000000	80.803124
3512.000000	80.747080
3510.000000	80.692832
3508.000000	80.654582
3506.000000	80.598870
3504.000000	80.523302
3502.000000	80.472995
3500.000000	80.441004
3498.000000	80.393377
3496.000000	80.338445
3494.000000	80.289448
3492.000000	80.237769
3490.000000	80.181387
3488.000000	80.128672
3486.000000	80.083325
3484.000000	80.041117
3482.000000	80.007918
3480.000000	79.992085
3478.000000	79.986435
3476.000000	79.982683
3474.000000	79.986312
3472.000000	79.997177
3470.000000	80.007287
3468.000000	80.019524
3466.000000	80.046089
3464.000000	80.082658
3462.000000	80.120429
3460.000000	80.160780
3458.000000	80.199954
3456.000000	80.234087
3454.000000	80.261998
3452.000000	80.282492
3450.000000	80.289748
3448.000000	80.293664
3446.000000	80.321878
3444.000000	80.368990
3442.000000	80.424073
3440.000000	80.496458
3438.000000	80.585019
3436.000000	80.686097
3434.000000	80.806219
3432.000000	80.943904
3430.000000	81.085775
3428.000000	81.226268
3426.000000	81.362674
3424.000000	81.485219
3422.000000	81.592859
3420.000000	81.701029
3418.000000	81.811365
3416.000000	81.910052
3414.000000	81.993098
3412.000000	82.066256
3410.000000	82.133157
3408.000000	82.192951
3406.000000	82.246424
3404.000000	82.297816
3402.000000	82.349521
3400.000000	82.409224
3398.000000	82.482922
3396.000000	82.560225
3394.000000	82.629980
3392.000000	82.699699
3390.000000	82.777814
3388.000000	82.851222
3386.000000	82.913394
3384.000000	82.969628
3382.000000	83.025969
3380.000000	83.082421
3378.000000	83.135384
3376.000000	83.183902
3374.000000	83.229056
3372.000000	83.268799
3370.000000	83.303510
3368.000000	83.344414
3366.000000	83.392855
3364.000000	83.441885
3362.000000	83.488245
3360.000000	83.532623
3358.000000	83.575548
3356.000000	83.616879
3354.000000	83.656580
3352.000000	83.694602
3350.000000	83.734840
3348.000000	83.779339
3346.000000	83.823466
3344.000000	83.867087
3342.000000	83.909255
3340.000000	83.944543
3338.000000	83.978184
3336.000000	84.018854
3334.000000	84.062772
3332.000000	84.106678
3330.000000	84.145884
3328.000000	84.178139
3326.000000	84.211462
3324.000000	84.249116
3322.000000	84.287070
3320.000000	84.323483
3318.000000	84.359304
3316.000000	84.394714
3314.000000	84.428853
3312.000000	84.460621
3310.000000	84.488788
3308.000000	84.514639
3306.000000	84.545865
3304.000000	84.587829
3302.000000	84.633331
3300.000000	84.672864
3298.000000	84.707309
3296.000000	84.740669
3294.000000	84.773442
3292.000000	84.808774
3290.000000	84.848513
3288.000000	84.890531
3286.000000	84.931067
3284.000000	84.967698
3282.000000	85.003409
3280.000000	85.040838
3278.000000	85.077357
3276.000000	85.110842
3274.000000	85.145611
3272.000000	85.184757
3270.000000	85.228872
3268.000000	85.277059
3266.000000	85.322478
3264.000000	85.366191
3262.000000	85.412450
3260.000000	85.456478
3258.000000	85.497104
3256.000000	85.538388
3254.000000	85.583164
3252.000000	85.632319
3250.000000	85.680714
3248.000000	85.725698
3246.000000	85.768577
3244.000000	85.819137
3242.000000	85.875195
3240.000000	85.925862
3238.000000	85.973216
3236.000000	86.020605
3234.000000	86.066440
3232.000000	86.116894
3230.000000	86.170911
3228.000000	86.224246
3226.000000	86.278698
3224.000000	86.327012
3222.000000	86.370083
3220.000000	86.416328
3218.000000	86.466523
3216.000000	86.515204
3214.000000	86.561999
3212.000000	86.611826
3210.000000	86.663433
3208.000000	86.719962
3206.000000	86.784258
3204.000000	86.853928
3202.000000	86.924233
3200.000000	86.992663
3198.000000	87.061706
3196.000000	87.136925
3194.000000	87.212347
3192.000000	87.284350
3190.000000	87.356604
3188.000000	87.429161
3186.000000	87.498778
3184.000000	87.568234
3182.000000	87.639318
3180.000000	87.708436
3178.000000	87.775954
3176.000000	87.848701
3174.000000	87.924214
3172.000000	87.999142
3170.000000	88.071650
3168.000000	88.144088
3166.000000	88.220071
3164.000000	88.297808
3162.000000	88.376361
3160.000000	88.456265
3158.000000	88.534295
3156.000000	88.608841
3154.000000	88.679434
3152.000000	88.752301
3150.000000	88.833763
3148.000000	88.916927
3146.000000	88.995588
3144.000000	89.070419
3142.000000	89.139628
3140.000000	89.207781
3138.000000	89.282074
3136.000000	89.355936
3134.000000	89.421418
3132.000000	89.487724
3130.000000	89.557703
3128.000000	89.625323
3126.000000	89.687520
3124.000000	89.744091
3122.000000	89.795118
3120.000000	89.845842
3118.000000	89.898212
3116.000000	89.954098
3114.000000	90.014376
3112.000000	90.073454
3110.000000	90.124101
3108.000000	90.174268
3106.000000	90.234039
3104.000000	90.295813
3102.000000	90.355504
3100.000000	90.417243
3098.000000	90.481003
3096.000000	90.547494
3094.000000	90.615686
3092.000000	90.679167
3090.000000	90.737492
3088.000000	90.795602
3086.000000	90.849566
3084.000000	90.898932
3082.000000	90.941948
3080.000000	90.978415
3078.000000	91.016340
3076.000000	91.056970
3074.000000	91.087961
3072.000000	91.105997
3070.000000	91.115319
3068.000000	91.120970
3066.000000	91.134566
3064.000000	91.170999
3062.000000	91.224609
3060.000000	91.281072
3058.000000	91.334040
3056.000000	91.393065
3054.000000	91.459260
3052.000000	91.517927
3050.000000	91.566080
3048.000000	91.611599
3046.000000	91.654406
3044.000000	91.689301
3042.000000	91.715304
3040.000000	91.738628
3038.000000	91.758832
3036.000000	91.769616
3034.000000	91.770191
3032.000000	91.761218
3030.000000	91.729176
3028.000000	91.661170
3026.000000	91.554778
3024.000000	91.426074
3022.000000	91.307538
3020.000000	91.238690
3018.000000	91.264161
3016.000000	91.407271
3014.000000	91.646362
3012.000000	91.931472
3010.000000	92.208829
3008.000000	92.436561
3006.000000	92.599636
3004.000000	92.712973
3002.000000	92.794352
3000.000000	92.852433
2998.000000	92.891532
2996.000000	92.922050
2994.000000	92.944774
2992.000000	92.956138
2990.000000	92.956494
2988.000000	92.940915
2986.000000	92.904766
2984.000000	92.846587
2982.000000	92.760032
2980.000000	92.639552
2978.000000	92.476538
2976.000000	92.254083
2974.000000	91.952110
2972.000000	91.557227
2970.000000	91.076207
2968.000000	90.552307
2966.000000	90.067830
2964.000000	89.713103
2962.000000	89.540378
2960.000000	89.551813
2958.000000	89.692799
2956.000000	89.883621
2954.000000	90.066901
2952.000000	90.211641
2950.000000	90.284544
2948.000000	90.250306
2946.000000	90.085586
2944.000000	89.790012
2942.000000	89.379544
2940.000000	88.889767
2938.000000	88.378481
2936.000000	87.905149
2934.000000	87.483331
2932.000000	87.083970
2930.000000	86.693193
2928.000000	86.361247
2926.000000	86.194527
2924.000000	86.301709
2922.000000	86.722068
2920.000000	87.401061
2918.000000	88.222655
2916.000000	89.076966
2914.000000	89.879977
2912.000000	90.572493
2910.000000	91.125160
2908.000000	91.554435
2906.000000	91.904789
2904.000000	92.208763
2902.000000	92.483876
2900.000000	92.741212
2898.000000	92.980678
2896.000000	93.205662
2894.000000	93.421829
2892.000000	93.627631
2890.000000	93.815030
2888.000000	93.977961
2886.000000	94.107696
2884.000000	94.195788
2882.000000	94.239802
2880.000000	94.238364
2878.000000	94.183348
2876.000000	94.071873
2874.000000	93.897166
2872.000000	93.644741
2870.000000	93.284336
2868.000000	92.800072
2866.000000	92.226245
2864.000000	91.681830
2862.000000	91.327221
2860.000000	91.251341
2858.000000	91.417182
2856.000000	91.720174
2854.000000	92.079047
2852.000000	92.491438
2850.000000	92.998247
2848.000000	93.602417
2846.000000	94.221131
2844.000000	94.764464
2842.000000	95.199865
2840.000000	95.541171
2838.000000	95.814215
2836.000000	96.036579
2834.000000	96.219562
2832.000000	96.375415
2830.000000	96.510620
2828.000000	96.632201
2826.000000	96.742059
2824.000000	96.842024
2822.000000	96.935959
2820.000000	97.026088
2818.000000	97.105808
2816.000000	97.174533
2814.000000	97.237518
2812.000000	97.297500
2810.000000	97.352695
2808.000000	97.404554
2806.000000	97.452729
2804.000000	97.497323
2802.000000	97.541149
2800.000000	97.587052
2798.000000	97.629680
2796.000000	97.669222
2794.000000	97.709297
2792.000000	97.756375
2790.000000	97.815530
2788.000000	97.888136
2786.000000	97.969202
2784.000000	98.052696
2782.000000	98.133314
2780.000000	98.208685
2778.000000	98.276377
2776.000000	98.338021
2774.000000	98.394527
2772.000000	98.450702
2770.000000	98.504076
2768.000000	98.555029
2766.000000	98.604262
2764.000000	98.654116
2762.000000	98.700475
2760.000000	98.745402
2758.000000	98.790296
2756.000000	98.833759
2754.000000	98.874187
2752.000000	98.915742
2750.000000	98.955014
2748.000000	98.989669
2746.000000	99.025399
2744.000000	99.062829
2742.000000	99.099506
2740.000000	99.133874
2738.000000	99.166834
2736.000000	99.202873
2734.000000	99.238662
2732.000000	99.275159
2730.000000	99.307165
2728.000000	99.338577
2726.000000	99.371142
2724.000000	99.402738
2722.000000	99.434454
2720.000000	99.469144
2718.000000	99.500669
2716.000000	99.530590
2714.000000	99.557488
2712.000000	99.581744
2710.000000	99.606754
2708.000000	99.633371
2706.000000	99.659364
2704.000000	99.689809
2702.000000	99.725640
2700.000000	99.768640
2698.000000	99.817571
2696.000000	99.865426
2694.000000	99.908806
2692.000000	99.953260
2690.000000	99.997003
2688.000000	100.038227
2686.000000	100.077483
2684.000000	100.116756
2682.000000	100.154443
2680.000000	100.191962
2678.000000	100.226838
2676.000000	100.259810
2674.000000	100.290146
2672.000000	100.320845
2670.000000	100.351686
2668.000000	100.380122
2666.000000	100.409264
2664.000000	100.441188
2662.000000	100.469988
2660.000000	100.497986
2658.000000	100.527769
2656.000000	100.561271
2654.000000	100.598260
2652.000000	100.638085
2650.000000	100.677980
2648.000000	100.719814
2646.000000	100.761001
2644.000000	100.800848
2642.000000	100.836117
2640.000000	100.869123
2638.000000	100.904155
2636.000000	100.938873
2634.000000	100.972462
2632.000000	101.006615
2630.000000	101.035353
2628.000000	101.063796
2626.000000	101.092004
2624.000000	101.117309
2622.000000	101.144625
2620.000000	101.176745
2618.000000	101.204329
2616.000000	101.229255
2614.000000	101.253144
2612.000000	101.278741
2610.000000	101.301870
2608.000000	101.320737
2606.000000	101.338194
2604.000000	101.356403
2602.000000	101.368936
2600.000000	101.378750
2598.000000	101.387965
2596.000000	101.398078
2594.000000	101.412998
2592.000000	101.436755
2590.000000	101.468011
2588.000000	101.511299
2586.000000	101.564150
2584.000000	101.622195
2582.000000	101.682839
2580.000000	101.744462
2578.000000	101.801113
2576.000000	101.855176
2574.000000	101.905143
2572.000000	101.949681
2570.000000	101.990394
2568.000000	102.029202
2566.000000	102.062478
2564.000000	102.095294
2562.000000	102.128445
2560.000000	102.160526
2558.000000	102.186878
2556.000000	102.211757
2554.000000	102.237561
2552.000000	102.265012
2550.000000	102.291976
2548.000000	102.318303
2546.000000	102.344063
2544.000000	102.372250
2542.000000	102.400106
2540.000000	102.427696
2538.000000	102.454083
2536.000000	102.479904
2534.000000	102.502392
2532.000000	102.526923
2530.000000	102.555416
2528.000000	102.583773
2526.000000	102.609152
2524.000000	102.634684
2522.000000	102.658441
2520.000000	102.681762
2518.000000	102.705054
2516.000000	102.728258
2514.000000	102.750463
2512.000000	102.773744
2510.000000	102.797548
2508.000000	102.821020
2506.000000	102.841228
2504.000000	102.860706
2502.000000	102.879997
2500.000000	102.903990
2498.000000	102.928431
2496.000000	102.953167
2494.000000	102.981047
2492.000000	103.011199
2490.000000	103.037741
2488.000000	103.062880
2486.000000	103.087059
2484.000000	103.114238
2482.000000	103.140841
2480.000000	103.165843
2478.000000	103.189894
2476.000000	103.215670
2474.000000	103.236964
2472.000000	103.254856
2470.000000	103.272031
2468.000000	103.291556
2466.000000	103.310036
2464.000000	103.327897
2462.000000	103.341327
2460.000000	103.356915
2458.000000	103.376116
2456.000000	103.393734
2454.000000	103.408032
2452.000000	103.423647
2450.000000	103.440714
2448.000000	103.456787
2446.000000	103.470172
2444.000000	103.486911
2442.000000	103.506002
2440.000000	103.523633
2438.000000	103.537900
2436.000000	103.552270
2434.000000	103.565486
2432.000000	103.577867
2430.000000	103.587934
2428.000000	103.598989
2426.000000	103.610178
2424.000000	103.629122
2422.000000	103.648413
2420.000000	103.662739
2418.000000	103.674381
2416.000000	103.686174
2414.000000	103.698853
2412.000000	103.711700
2410.000000	103.720682
2408.000000	103.732638
2406.000000	103.748229
2404.000000	103.764324
2402.000000	103.777346
2400.000000	103.794489
2398.000000	103.811318
2396.000000	103.828496
2394.000000	103.847215
2392.000000	103.866715
2390.000000	103.883003
2388.000000	103.896077
2386.000000	103.901757
2384.000000	103.895678
2382.000000	103.866890
2380.000000	103.810683
2378.000000	103.717478
2376.000000	103.581038
2374.000000	103.403493
2372.000000	103.197263
2370.000000	102.974648
2368.000000	102.762405
2366.000000	102.585980
2364.000000	102.469509
2362.000000	102.430639
2360.000000	102.479872
2358.000000	102.616558
2356.000000	102.838173
2354.000000	103.125903
2352.000000	103.443352
2350.000000	103.673895
2348.000000	103.665905
2346.000000	103.462739
2344.000000	103.242904
2342.000000	103.082981
2340.000000	102.991715
2338.000000	102.953304
2336.000000	102.955041
2334.000000	102.983464
2332.000000	103.037997
2330.000000	103.116967
2328.000000	103.212713
2326.000000	103.316831
2324.000000	103.427888
2322.000000	103.536893
2320.000000	103.640185
2318.000000	103.737112
2316.000000	103.826709
2314.000000	103.902645
2312.000000	103.968013
2310.000000	104.022298
2308.000000	104.069287
2306.000000	104.107813
2304.000000	104.138694
2302.000000	104.162538
2300.000000	104.185743
2298.000000	104.205847
2296.000000	104.221774
2294.000000	104.235634
2292.000000	104.250827
2290.000000	104.259855
2288.000000	104.269330
2286.000000	104.277547
2284.000000	104.285646
2282.000000	104.288648
2280.000000	104.287505
2278.000000	104.280902
2276.000000	104.275872
2274.000000	104.272654
2272.000000	104.268484
2270.000000	104.261755
2268.000000	104.258028
2266.000000	104.252128
2264.000000	104.247773
2262.000000	104.245722
2260.000000	104.244012
2258.000000	104.240810
2256.000000	104.241158
2254.000000	104.242597
2252.000000	104.247709
2250.000000	104.251543
2248.000000	104.256795
2246.000000	104.266465
2244.000000	104.278422
2242.000000	104.288495
2240.000000	104.303275
2238.000000	104.317190
2236.000000	104.329734
2234.000000	104.343661
2232.000000	104.361135
2230.000000	104.373378
2228.000000	104.386926
2226.000000	104.399404
2224.000000	104.407464
2222.000000	104.411888
2220.000000	104.419619
2218.000000	104.428606
2216.000000	104.438298
2214.000000	104.443783
2212.000000	104.448830
2210.000000	104.452753
2208.000000	104.456118
2206.000000	104.459626
2204.000000	104.465514
2202.000000	104.470515
2200.000000	104.476796
2198.000000	104.477704
2196.000000	104.479456
2194.000000	104.480689
2192.000000	104.483932
2190.000000	104.483294
2188.000000	104.482761
2186.000000	104.480023
2184.000000	104.481183
2182.000000	104.481530
2180.000000	104.483754
2178.000000	104.483522
2176.000000	104.478853
2174.000000	104.467137
2172.000000	104.444015
2170.000000	104.418892
2168.000000	104.430249
2166.000000	104.455049
2164.000000	104.465185
2162.000000	104.462592
2160.000000	104.458545
2158.000000	104.456680
2156.000000	104.460174
2154.000000	104.459971
2152.000000	104.457120
2150.000000	104.452707
2148.000000	104.452169
2146.000000	104.451766
2144.000000	104.450927
2142.000000	104.448683
2140.000000	104.448224
2138.000000	104.444633
2136.000000	104.443747
2134.000000	104.444614
2132.000000	104.444744
2130.000000	104.441935
2128.000000	104.438774
2126.000000	104.435920
2124.000000	104.436709
2122.000000	104.440285
2120.000000	104.445092
2118.000000	104.446787
2116.000000	104.448342
2114.000000	104.451932
2112.000000	104.461983
2110.000000	104.474538
2108.000000	104.486783
2106.000000	104.497164
2104.000000	104.509620
2102.000000	104.522322
2100.000000	104.534633
2098.000000	104.544132
2096.000000	104.559100
2094.000000	104.573510
2092.000000	104.585011
2090.000000	104.594045
2088.000000	104.610738
2086.000000	104.624388
2084.000000	104.641862
2082.000000	104.657429
2080.000000	104.674583
2078.000000	104.688539
2076.000000	104.703000
2074.000000	104.717916
2072.000000	104.739894
2070.000000	104.758065
2068.000000	104.773530
2066.000000	104.782717
2064.000000	104.802148
2062.000000	104.827954
2060.000000	104.854525
2058.000000	104.877020
2056.000000	104.898682
2054.000000	104.917484
2052.000000	104.939310
2050.000000	104.959402
2048.000000	104.980675
2046.000000	104.996810
2044.000000	105.010903
2042.000000	105.020950
2040.000000	105.042438
2038.000000	105.062541
2036.000000	105.077985
2034.000000	105.086370
2032.000000	105.084679
2030.000000	105.064767
2028.000000	105.073960
2026.000000	105.111461
2024.000000	105.135942
2022.000000	105.142386
2020.000000	105.140424
2018.000000	105.135900
2016.000000	105.159703
2014.000000	105.194964
2012.000000	105.216384
2010.000000	105.229672
2008.000000	105.246258
2006.000000	105.259673
2004.000000	105.271617
2002.000000	105.277793
2000.000000	105.282682
1998.000000	105.285418
1996.000000	105.285818
1994.000000	105.254237
1992.000000	105.223850
1990.000000	105.243853
1988.000000	105.268200
1986.000000	105.272897
1984.000000	105.270064
1982.000000	105.262255
1980.000000	105.253305
1978.000000	105.237304
1976.000000	105.220305
1974.000000	105.204378
1972.000000	105.188953
1970.000000	105.153549
1968.000000	105.099237
1966.000000	105.079489
1964.000000	105.083235
1962.000000	105.029356
1960.000000	104.906305
1958.000000	104.875498
1956.000000	104.957994
1954.000000	104.985524
1952.000000	104.965703
1950.000000	104.931227
1948.000000	104.906934
1946.000000	104.865776
1944.000000	104.785684
1942.000000	104.746318
1940.000000	104.793991
1938.000000	104.805434
1936.000000	104.787950
1934.000000	104.760412
1932.000000	104.733589
1930.000000	104.705199
1928.000000	104.679449
1926.000000	104.628203
1924.000000	104.545615
1922.000000	104.492374
1920.000000	104.404735
1918.000000	104.295209
1916.000000	104.356148
1914.000000	104.395994
1912.000000	104.336717
1910.000000	104.251943
1908.000000	104.212182
1906.000000	104.177006
1904.000000	104.130923
1902.000000	104.079405
1900.000000	104.034976
1898.000000	103.973132
1896.000000	103.908898
1894.000000	103.876183
1892.000000	103.828427
1890.000000	103.736012
1888.000000	103.759315
1886.000000	103.800842
1884.000000	103.796938
1882.000000	103.778516
1880.000000	103.758119
1878.000000	103.730981
1876.000000	103.712435
1874.000000	103.678051
1872.000000	103.559284
1870.000000	103.325812
1868.000000	103.293456
1866.000000	103.442775
1864.000000	103.513288
1862.000000	103.491949
1860.000000	103.458921
1858.000000	103.425282
1856.000000	103.398920
1854.000000	103.360676
1852.000000	103.323964
1850.000000	103.256877
1848.000000	103.132506
1846.000000	102.805456
1844.000000	102.600140
1842.000000	102.852320
1840.000000	103.014821
1838.000000	102.961528
1836.000000	102.911077
1834.000000	102.841369
1832.000000	102.629035
1830.000000	102.417281
1828.000000	102.439908
1826.000000	102.393724
1824.000000	102.386930
1822.000000	102.451858
1820.000000	102.419726
1818.000000	102.338373
1816.000000	102.274557
1814.000000	102.181805
1812.000000	102.032981
1810.000000	101.932790
1808.000000	101.903979
1806.000000	101.831524
1804.000000	101.675633
1802.000000	101.446293
1800.000000	101.315963
1798.000000	101.291912
1796.000000	101.165401
1794.000000	100.746858
1792.000000	100.501701
1790.000000	100.703612
1788.000000	100.796107
1786.000000	100.614212
1784.000000	100.482572
1782.000000	100.385357
1780.000000	100.279255
1778.000000	100.212806
1776.000000	99.977321
1774.000000	99.395028
1772.000000	99.091773
1770.000000	99.327107
1768.000000	99.451607
1766.000000	99.570553
1764.000000	99.434163
1762.000000	99.146368
1760.000000	99.137737
1758.000000	99.045970
1756.000000	98.910278
1754.000000	98.717469
1752.000000	98.185797
1750.000000	97.974565
1748.000000	98.072931
1746.000000	98.071406
1744.000000	97.920589
1742.000000	97.633207
1740.000000	97.360309
1738.000000	97.304619
1736.000000	96.670219
1734.000000	96.024758
1732.000000	96.584644
1730.000000	97.123060
1728.000000	97.244229
1726.000000	97.222400
1724.000000	97.133877
1722.000000	96.994407
1720.000000	96.392888
1718.000000	95.562965
1716.000000	95.693714
1714.000000	96.264611
1712.000000	96.530396
1710.000000	96.463315
1708.000000	96.205688
1706.000000	95.896647
1704.000000	95.719360
1702.000000	94.942174
1700.000000	94.360902
1698.000000	94.546765
1696.000000	94.467624
1694.000000	95.164467
1692.000000	95.780204
1690.000000	95.726082
1688.000000	95.387210
1686.000000	94.329020
1684.000000	93.921345
1682.000000	94.834346
1680.000000	95.347847
1678.000000	95.209352
1676.000000	94.746171
1674.000000	94.718702
1672.000000	94.733915
1670.000000	94.430410
1668.000000	94.563005
1666.000000	94.776529
1664.000000	94.525186
1662.000000	94.382306
1660.000000	94.519275
1658.000000	94.422228
1656.000000	93.529070
1654.000000	91.889852
1652.000000	91.969571
1650.000000	93.203469
1648.000000	93.091729
1646.000000	92.822432
1644.000000	93.257247
1642.000000	93.491957
1640.000000	93.290205
1638.000000	92.656219
1636.000000	91.913404
1634.000000	92.162214
1632.000000	92.602191
1630.000000	92.423192
1628.000000	92.063384
1626.000000	91.684395
1624.000000	91.132776
1622.000000	90.759680
1620.000000	90.356919
1618.000000	89.422658
1616.000000	88.943081
1614.000000	89.037203
1612.000000	88.603412
1610.000000	87.977493
1608.000000	87.655272
1606.000000	87.689089
1604.000000	87.885464
1602.000000	88.128493
1600.000000	88.365822
1598.000000	88.569002
1596.000000	88.713093
1594.000000	88.827985
1592.000000	88.898394
1590.000000	88.905783
1588.000000	88.865881
1586.000000	88.798353
1584.000000	88.725139
1582.000000	88.673294
1580.000000	88.544797
1578.000000	87.905835
1576.000000	87.448474
1574.000000	88.013035
1572.000000	88.174246
1570.000000	87.809998
1568.000000	87.812923
1566.000000	87.817918
1564.000000	87.527305
1562.000000	86.588553
1560.000000	85.113220
1558.000000	85.100675
1556.000000	86.119429
1554.000000	86.719208
1552.000000	87.197328
1550.000000	87.491771
1548.000000	87.673749
1546.000000	87.610661
1544.000000	87.348188
1542.000000	86.838990
1540.000000	86.581708
1538.000000	87.542404
1536.000000	88.495413
1534.000000	88.555027
1532.000000	88.811244
1530.000000	89.061488
1528.000000	88.928791
1526.000000	88.707167
1524.000000	88.421784
1522.000000	87.882874
1520.000000	87.935632
1518.000000	88.157625
1516.000000	88.081204
1514.000000	88.010295
1512.000000	87.815520
1510.000000	87.357132
1508.000000	86.233510
1506.000000	85.568713
1504.000000	85.749042
1502.000000	84.908024
1500.000000	82.470659
1498.000000	79.197273
1496.000000	76.680147
1494.000000	76.270546
1492.000000	77.359423
1490.000000	79.118946
1488.000000	81.059618
1486.000000	82.646379
1484.000000	83.682537
1482.000000	84.193488
1480.000000	84.432370
1478.000000	84.371496
1476.000000	84.047847
1474.000000	83.546303
1472.000000	83.354808
1470.000000	83.564693
1468.000000	83.408301
1466.000000	82.836083
1464.000000	82.448159
1462.000000	82.172202
1460.000000	81.245279
1458.000000	79.638934
1456.000000	78.614997
1454.000000	78.261022
1452.000000	77.785908
1450.000000	77.863531
1448.000000	78.693000
1446.000000	79.665980
1444.000000	80.157550
1442.000000	80.275037
1440.000000	80.177986
1438.000000	79.808747
1436.000000	79.780051
1434.000000	80.222616
1432.000000	80.317497
1430.000000	80.251741
1428.000000	80.280536
1426.000000	80.284611
1424.000000	80.181604
1422.000000	79.949546
1420.000000	79.443219
1418.000000	79.374567
1416.000000	79.548165
1414.000000	79.432678
1412.000000	79.079556
1410.000000	78.551127
1408.000000	77.797517
1406.000000	76.974246
1404.000000	76.506326
1402.000000	76.524379
1400.000000	76.747297
1398.000000	77.174612
1396.000000	77.549452
1394.000000	77.870446
1392.000000	78.206392
1390.000000	78.212521
1388.000000	77.891105
1386.000000	77.616276
1384.000000	77.526881
1382.000000	77.631607
1380.000000	77.728007
1378.000000	77.675569
1376.000000	77.517209
1374.000000	77.379596
1372.000000	77.347749
1370.000000	77.257883
1368.000000	77.104099
1366.000000	76.941179
1364.000000	76.704569
1362.000000	76.520541
1360.000000	76.431482
1358.000000	76.304620
1356.000000	76.111123
1354.000000	75.904581
1352.000000	75.698353
1350.000000	75.485072
1348.000000	75.264361
1346.000000	75.035811
1344.000000	74.789541
1342.000000	74.514586
1340.000000	74.254687
1338.000000	74.115356
1336.000000	74.042871
1334.000000	73.946025
1332.000000	73.796817
1330.000000	73.606612
1328.000000	73.384948
1326.000000	73.144092
1324.000000	72.880650
1322.000000	72.597236
1320.000000	72.290167
1318.000000	71.990312
1316.000000	71.694891
1314.000000	71.383338
1312.000000	71.070625
1310.000000	70.761529
1308.000000	70.434945
1306.000000	70.103945
1304.000000	69.766426
1302.000000	69.422825
1300.000000	69.074761
1298.000000	68.729552
1296.000000	68.377865
1294.000000	68.013747
1292.000000	67.628488
1290.000000	67.232061
1288.000000	66.830967
1286.000000	66.432204
1284.000000	66.018275
1282.000000	65.583641
1280.000000	65.125992
1278.000000	64.643297
1276.000000	64.104879
1274.000000	63.487609
1272.000000	62.762447
1270.000000	61.881144
1268.000000	60.776687
1266.000000	59.458352
1264.000000	58.090177
1262.000000	56.994879
1260.000000	56.445841
1258.000000	56.450633
1256.000000	56.738069
1254.000000	56.979052
1252.000000	56.975143
1250.000000	56.731394
1248.000000	56.338194
1246.000000	55.869645
1244.000000	55.359945
1242.000000	54.840971
1240.000000	54.331929
1238.000000	53.844256
1236.000000	53.369322
1234.000000	52.905589
1232.000000	52.450147
1230.000000	52.002975
1228.000000	51.558288
1226.000000	51.110522
1224.000000	50.652505
1222.000000	50.182625
1220.000000	49.691700
1218.000000	49.181335
1216.000000	48.659452
1214.000000	48.144097
1212.000000	47.653308
1210.000000	47.201374
1208.000000	46.784702
1206.000000	46.390179
1204.000000	45.993070
1202.000000	45.593646
1200.000000	45.200278
1198.000000	44.814127
1196.000000	44.420804
1194.000000	44.015334
1192.000000	43.598053
1190.000000	43.170747
1188.000000	42.728997
1186.000000	42.256826
1184.000000	41.674184
1182.000000	40.947026
1180.000000	40.380853
1178.000000	40.133760
1176.000000	39.904236
1174.000000	39.549961
1172.000000	39.119657
1170.000000	38.669655
1168.000000	38.207230
1166.000000	37.733725
1164.000000	37.261206
1162.000000	36.801784
1160.000000	36.347762
1158.000000	35.910235
1156.000000	35.486953
1154.000000	35.068044
1152.000000	34.642090
1150.000000	34.222470
1148.000000	33.791338
1146.000000	33.349630
1144.000000	32.920899
1142.000000	32.545395
1140.000000	32.233850
1138.000000	31.922461
1136.000000	31.561545
1134.000000	31.166719
1132.000000	30.747189
1130.000000	30.318814
1128.000000	29.898242
1126.000000	29.479345
1124.000000	29.048910
1122.000000	28.613219
1120.000000	28.164498
1118.000000	27.704930
1116.000000	27.237663
1114.000000	26.770430
1112.000000	26.301820
1110.000000	25.837368
1108.000000	25.385636
1106.000000	24.953440
1104.000000	24.537809
1102.000000	24.129314
1100.000000	23.716945
1098.000000	23.308475
1096.000000	22.911283
1094.000000	22.530023
1092.000000	22.160578
1090.000000	21.808893
1088.000000	21.467667
1086.000000	21.130737
1084.000000	20.782079
1082.000000	20.422371
1080.000000	20.083808
1078.000000	19.780310
1076.000000	19.502231
1074.000000	19.267905
1072.000000	19.051481
1070.000000	18.825628
1068.000000	18.593883
1066.000000	18.364135
1064.000000	18.133952
1062.000000	17.898304
1060.000000	17.648771
1058.000000	17.361081
1056.000000	16.972044
1054.000000	16.461994
1052.000000	15.958242
1050.000000	15.659150
1048.000000	15.621797
1046.000000	15.700669
1044.000000	15.699356
1042.000000	15.582977
1040.000000	15.399340
1038.000000	15.186424
1036.000000	14.960583
1034.000000	14.723780
1032.000000	14.475983
1030.000000	14.219511
1028.000000	13.951871
1026.000000	13.680659
1024.000000	13.408919
1022.000000	13.141811
1020.000000	12.889140
1018.000000	12.658137
1016.000000	12.446750
1014.000000	12.255083
1012.000000	12.081552
1010.000000	11.919798
1008.000000	11.752807
1006.000000	11.573121
1004.000000	11.375662
1002.000000	11.164627
1000.000000	10.938078
