PE IR       SUBTECH     SPECTRUM    ASCII       PEDS        4.00        
   -1
TE109A_065_130K_BG.ASC
20/04/21
18:41:35.00
20/04/21
18:41:35.00
Administrator
TE109A, Tuesday, April 21 2020, 065.
1000.000000
#HDR
-1
-1
#GR
cm-1
EGY
1.0
0.0
6000.000000
-2.000000
2501
8
105.290010
10.941474
#DATA
6000.000000	16.329004
5998.000000	16.361440
5996.000000	16.394014
5994.000000	16.427684
5992.000000	16.461592
5990.000000	16.494772
5988.000000	16.527560
5986.000000	16.560329
5984.000000	16.592010
5982.000000	16.623348
5980.000000	16.655489
5978.000000	16.689678
5976.000000	16.724739
5974.000000	16.758711
5972.000000	16.790710
5970.000000	16.822641
5968.000000	16.855266
5966.000000	16.889501
5964.000000	16.924735
5962.000000	16.959770
5960.000000	16.994523
5958.000000	17.028904
5956.000000	17.062906
5954.000000	17.096196
5952.000000	17.128705
5950.000000	17.162731
5948.000000	17.196808
5946.000000	17.230385
5944.000000	17.262803
5942.000000	17.295778
5940.000000	17.330285
5938.000000	17.364509
5936.000000	17.398194
5934.000000	17.432536
5932.000000	17.465530
5930.000000	17.497905
5928.000000	17.529522
5926.000000	17.564965
5924.000000	17.602588
5922.000000	17.639680
5920.000000	17.675476
5918.000000	17.709622
5916.000000	17.744105
5914.000000	17.779886
5912.000000	17.815004
5910.000000	17.851089
5908.000000	17.887084
5906.000000	17.924559
5904.000000	17.963479
5902.000000	18.001556
5900.000000	18.037768
5898.000000	18.073317
5896.000000	18.109161
5894.000000	18.145613
5892.000000	18.181436
5890.000000	18.217316
5888.000000	18.253712
5886.000000	18.289033
5884.000000	18.323725
5882.000000	18.358786
5880.000000	18.394735
5878.000000	18.430840
5876.000000	18.465460
5874.000000	18.501599
5872.000000	18.538619
5870.000000	18.576225
5868.000000	18.613256
5866.000000	18.648951
5864.000000	18.684950
5862.000000	18.722532
5860.000000	18.760270
5858.000000	18.798143
5856.000000	18.834716
5854.000000	18.872833
5852.000000	18.912909
5850.000000	18.952969
5848.000000	18.992085
5846.000000	19.029159
5844.000000	19.066605
5842.000000	19.107014
5840.000000	19.149641
5838.000000	19.192654
5836.000000	19.234754
5834.000000	19.276885
5832.000000	19.318860
5830.000000	19.360359
5828.000000	19.400586
5826.000000	19.440842
5824.000000	19.481375
5822.000000	19.522529
5820.000000	19.563868
5818.000000	19.603682
5816.000000	19.643025
5814.000000	19.684096
5812.000000	19.726056
5810.000000	19.768404
5808.000000	19.808562
5806.000000	19.848391
5804.000000	19.888250
5802.000000	19.928087
5800.000000	19.968531
5798.000000	20.010008
5796.000000	20.050501
5794.000000	20.090757
5792.000000	20.131020
5790.000000	20.172151
5788.000000	20.213906
5786.000000	20.255017
5784.000000	20.296331
5782.000000	20.337498
5780.000000	20.377494
5778.000000	20.417510
5776.000000	20.458106
5774.000000	20.499622
5772.000000	20.542257
5770.000000	20.585531
5768.000000	20.628683
5766.000000	20.671898
5764.000000	20.713337
5762.000000	20.755213
5760.000000	20.796320
5758.000000	20.836875
5756.000000	20.878201
5754.000000	20.920521
5752.000000	20.962534
5750.000000	21.002990
5748.000000	21.043821
5746.000000	21.087231
5744.000000	21.130718
5742.000000	21.172000
5740.000000	21.211149
5738.000000	21.250812
5736.000000	21.290866
5734.000000	21.329746
5732.000000	21.367750
5730.000000	21.406935
5728.000000	21.447654
5726.000000	21.490143
5724.000000	21.532017
5722.000000	21.573506
5720.000000	21.615273
5718.000000	21.657831
5716.000000	21.702097
5714.000000	21.745633
5712.000000	21.789052
5710.000000	21.832645
5708.000000	21.877261
5706.000000	21.922067
5704.000000	21.965984
5702.000000	22.009531
5700.000000	22.052054
5698.000000	22.095102
5696.000000	22.139994
5694.000000	22.186166
5692.000000	22.232422
5690.000000	22.277259
5688.000000	22.321386
5686.000000	22.366192
5684.000000	22.412303
5682.000000	22.459834
5680.000000	22.504757
5678.000000	22.548267
5676.000000	22.592515
5674.000000	22.639828
5672.000000	22.687220
5670.000000	22.732505
5668.000000	22.776385
5666.000000	22.820332
5664.000000	22.865311
5662.000000	22.911144
5660.000000	22.956578
5658.000000	23.002564
5656.000000	23.047764
5654.000000	23.092076
5652.000000	23.136360
5650.000000	23.182345
5648.000000	23.229091
5646.000000	23.275578
5644.000000	23.319663
5642.000000	23.363734
5640.000000	23.409273
5638.000000	23.454494
5636.000000	23.499167
5634.000000	23.543719
5632.000000	23.588977
5630.000000	23.635486
5628.000000	23.681292
5626.000000	23.727012
5624.000000	23.771705
5622.000000	23.815340
5620.000000	23.859363
5618.000000	23.904308
5616.000000	23.949433
5614.000000	23.994495
5612.000000	24.040567
5610.000000	24.086620
5608.000000	24.131950
5606.000000	24.178234
5604.000000	24.224836
5602.000000	24.272453
5600.000000	24.317991
5598.000000	24.362477
5596.000000	24.406454
5594.000000	24.452666
5592.000000	24.500412
5590.000000	24.547909
5588.000000	24.595332
5586.000000	24.643071
5584.000000	24.690359
5582.000000	24.736587
5580.000000	24.782439
5578.000000	24.829374
5576.000000	24.876485
5574.000000	24.924198
5572.000000	24.972088
5570.000000	25.019616
5568.000000	25.066177
5566.000000	25.112802
5564.000000	25.159987
5562.000000	25.207974
5560.000000	25.256635
5558.000000	25.304830
5556.000000	25.351644
5554.000000	25.397934
5552.000000	25.445182
5550.000000	25.493586
5548.000000	25.542133
5546.000000	25.590093
5544.000000	25.637769
5542.000000	25.685477
5540.000000	25.732291
5538.000000	25.779117
5536.000000	25.826721
5534.000000	25.875266
5532.000000	25.923877
5530.000000	25.970642
5528.000000	26.016451
5526.000000	26.062428
5524.000000	26.109492
5522.000000	26.158454
5520.000000	26.206868
5518.000000	26.253755
5516.000000	26.299758
5514.000000	26.347462
5512.000000	26.394367
5510.000000	26.439069
5508.000000	26.484061
5506.000000	26.532834
5504.000000	26.582945
5502.000000	26.631127
5500.000000	26.678729
5498.000000	26.725201
5496.000000	26.769769
5494.000000	26.813858
5492.000000	26.860620
5490.000000	26.912062
5488.000000	26.965139
5486.000000	27.017992
5484.000000	27.069056
5482.000000	27.118908
5480.000000	27.164621
5478.000000	27.206324
5476.000000	27.250388
5474.000000	27.301078
5472.000000	27.355296
5470.000000	27.407182
5468.000000	27.457714
5466.000000	27.506613
5464.000000	27.552270
5462.000000	27.597313
5460.000000	27.647464
5458.000000	27.702640
5456.000000	27.758120
5454.000000	27.808998
5452.000000	27.853647
5450.000000	27.893508
5448.000000	27.933194
5446.000000	27.978472
5444.000000	28.028538
5442.000000	28.082177
5440.000000	28.135106
5438.000000	28.183832
5436.000000	28.229956
5434.000000	28.275898
5432.000000	28.321891
5430.000000	28.370695
5428.000000	28.423105
5426.000000	28.480106
5424.000000	28.536005
5422.000000	28.589831
5420.000000	28.639946
5418.000000	28.680447
5416.000000	28.715255
5414.000000	28.753462
5412.000000	28.802662
5410.000000	28.861111
5408.000000	28.920029
5406.000000	28.976225
5404.000000	29.028715
5402.000000	29.079564
5400.000000	29.126627
5398.000000	29.168924
5396.000000	29.209746
5394.000000	29.257368
5392.000000	29.312580
5390.000000	29.369028
5388.000000	29.419063
5386.000000	29.467965
5384.000000	29.521243
5382.000000	29.575401
5380.000000	29.621650
5378.000000	29.664335
5376.000000	29.713888
5374.000000	29.774119
5372.000000	29.834745
5370.000000	29.889106
5368.000000	29.937943
5366.000000	29.984742
5364.000000	30.033696
5362.000000	30.085627
5360.000000	30.138166
5358.000000	30.184866
5356.000000	30.225540
5354.000000	30.270485
5352.000000	30.322843
5350.000000	30.375830
5348.000000	30.418436
5346.000000	30.459353
5344.000000	30.507982
5342.000000	30.559559
5340.000000	30.607960
5338.000000	30.659247
5336.000000	30.718723
5334.000000	30.779600
5332.000000	30.831480
5330.000000	30.877013
5328.000000	30.924816
5326.000000	30.980414
5324.000000	31.038769
5322.000000	31.093316
5320.000000	31.144049
5318.000000	31.194927
5316.000000	31.246164
5314.000000	31.296715
5312.000000	31.344397
5310.000000	31.389034
5308.000000	31.436652
5306.000000	31.490061
5304.000000	31.545410
5302.000000	31.598169
5300.000000	31.649725
5298.000000	31.701596
5296.000000	31.752393
5294.000000	31.799484
5292.000000	31.845959
5290.000000	31.896460
5288.000000	31.950380
5286.000000	32.005010
5284.000000	32.058442
5282.000000	32.112769
5280.000000	32.167477
5278.000000	32.221601
5276.000000	32.274654
5274.000000	32.326515
5272.000000	32.375765
5270.000000	32.424138
5268.000000	32.467746
5266.000000	32.508567
5264.000000	32.555501
5262.000000	32.614838
5260.000000	32.677009
5258.000000	32.729659
5256.000000	32.777009
5254.000000	32.828749
5252.000000	32.880114
5250.000000	32.927645
5248.000000	32.973899
5246.000000	33.026119
5244.000000	33.082985
5242.000000	33.141301
5240.000000	33.200098
5238.000000	33.255979
5236.000000	33.307669
5234.000000	33.356027
5232.000000	33.405075
5230.000000	33.454368
5228.000000	33.500487
5226.000000	33.549218
5224.000000	33.604868
5222.000000	33.664216
5220.000000	33.718919
5218.000000	33.771631
5216.000000	33.825517
5214.000000	33.878328
5212.000000	33.925011
5210.000000	33.965861
5208.000000	34.008070
5206.000000	34.061707
5204.000000	34.125369
5202.000000	34.187751
5200.000000	34.240992
5198.000000	34.292649
5196.000000	34.347556
5194.000000	34.403491
5192.000000	34.457102
5190.000000	34.510044
5188.000000	34.562184
5186.000000	34.614544
5184.000000	34.668809
5182.000000	34.725652
5180.000000	34.780800
5178.000000	34.835246
5176.000000	34.890929
5174.000000	34.945815
5172.000000	34.999237
5170.000000	35.053314
5168.000000	35.108632
5166.000000	35.162180
5164.000000	35.215555
5162.000000	35.270932
5160.000000	35.325969
5158.000000	35.379874
5156.000000	35.433524
5154.000000	35.488538
5152.000000	35.542813
5150.000000	35.597561
5148.000000	35.652742
5146.000000	35.706776
5144.000000	35.759528
5142.000000	35.813373
5140.000000	35.869825
5138.000000	35.925237
5136.000000	35.977740
5134.000000	36.030233
5132.000000	36.083716
5130.000000	36.137089
5128.000000	36.189549
5126.000000	36.244585
5124.000000	36.300686
5122.000000	36.354858
5120.000000	36.406533
5118.000000	36.459799
5116.000000	36.514992
5114.000000	36.570664
5112.000000	36.625836
5110.000000	36.681732
5108.000000	36.736395
5106.000000	36.790101
5104.000000	36.843601
5102.000000	36.898498
5100.000000	36.953642
5098.000000	37.010087
5096.000000	37.066865
5094.000000	37.122937
5092.000000	37.178479
5090.000000	37.235925
5088.000000	37.294031
5086.000000	37.350570
5084.000000	37.406438
5082.000000	37.463248
5080.000000	37.519487
5078.000000	37.574437
5076.000000	37.628899
5074.000000	37.685243
5072.000000	37.742715
5070.000000	37.800978
5068.000000	37.857408
5066.000000	37.912104
5064.000000	37.967441
5062.000000	38.025607
5060.000000	38.082822
5058.000000	38.138131
5056.000000	38.193042
5054.000000	38.248797
5052.000000	38.303636
5050.000000	38.358815
5048.000000	38.414313
5046.000000	38.470312
5044.000000	38.525962
5042.000000	38.582347
5040.000000	38.638412
5038.000000	38.694479
5036.000000	38.750178
5034.000000	38.805504
5032.000000	38.860858
5030.000000	38.917963
5028.000000	38.975638
5026.000000	39.032215
5024.000000	39.086033
5022.000000	39.140794
5020.000000	39.196736
5018.000000	39.252914
5016.000000	39.307896
5014.000000	39.364050
5012.000000	39.421206
5010.000000	39.477991
5008.000000	39.535145
5006.000000	39.593748
5004.000000	39.652260
5002.000000	39.709383
5000.000000	39.766044
4998.000000	39.823725
4996.000000	39.880112
4994.000000	39.935423
4992.000000	39.991556
4990.000000	40.050899
4988.000000	40.110494
4986.000000	40.168951
4984.000000	40.227034
4982.000000	40.284791
4980.000000	40.341963
4978.000000	40.399865
4976.000000	40.459111
4974.000000	40.517650
4972.000000	40.574192
4970.000000	40.630680
4968.000000	40.688370
4966.000000	40.746866
4964.000000	40.804467
4962.000000	40.861806
4960.000000	40.918486
4958.000000	40.975080
4956.000000	41.032488
4954.000000	41.090398
4952.000000	41.146651
4950.000000	41.202329
4948.000000	41.258831
4946.000000	41.316427
4944.000000	41.373554
4942.000000	41.430970
4940.000000	41.487887
4938.000000	41.544304
4936.000000	41.600258
4934.000000	41.655237
4932.000000	41.711209
4930.000000	41.768572
4928.000000	41.825179
4926.000000	41.880869
4924.000000	41.937895
4922.000000	41.996423
4920.000000	42.052638
4918.000000	42.108571
4916.000000	42.165717
4914.000000	42.224031
4912.000000	42.281648
4910.000000	42.339968
4908.000000	42.399082
4906.000000	42.458022
4904.000000	42.514863
4902.000000	42.571767
4900.000000	42.629998
4898.000000	42.690315
4896.000000	42.751120
4894.000000	42.811681
4892.000000	42.869621
4890.000000	42.926626
4888.000000	42.985749
4886.000000	43.047562
4884.000000	43.107646
4882.000000	43.165134
4880.000000	43.222599
4878.000000	43.280713
4876.000000	43.338398
4874.000000	43.396926
4872.000000	43.456674
4870.000000	43.516757
4868.000000	43.575663
4866.000000	43.634241
4864.000000	43.691502
4862.000000	43.749357
4860.000000	43.806876
4858.000000	43.864547
4856.000000	43.921376
4854.000000	43.980313
4852.000000	44.039821
4850.000000	44.097115
4848.000000	44.152471
4846.000000	44.209883
4844.000000	44.267914
4842.000000	44.325498
4840.000000	44.383507
4838.000000	44.442032
4836.000000	44.498193
4834.000000	44.554237
4832.000000	44.610605
4830.000000	44.667698
4828.000000	44.725639
4826.000000	44.783671
4824.000000	44.840255
4822.000000	44.897890
4820.000000	44.957948
4818.000000	45.018009
4816.000000	45.076251
4814.000000	45.134111
4812.000000	45.192541
4810.000000	45.252269
4808.000000	45.312398
4806.000000	45.372608
4804.000000	45.432374
4802.000000	45.492006
4800.000000	45.551965
4798.000000	45.612626
4796.000000	45.673567
4794.000000	45.734327
4792.000000	45.793941
4790.000000	45.854457
4788.000000	45.915297
4786.000000	45.974496
4784.000000	46.032337
4782.000000	46.093484
4780.000000	46.154982
4778.000000	46.215012
4776.000000	46.274453
4774.000000	46.334261
4772.000000	46.392675
4770.000000	46.451375
4768.000000	46.510846
4766.000000	46.569498
4764.000000	46.627482
4762.000000	46.686202
4760.000000	46.744255
4758.000000	46.802667
4756.000000	46.861962
4754.000000	46.921111
4752.000000	46.979132
4750.000000	47.038034
4748.000000	47.095744
4746.000000	47.152656
4744.000000	47.210244
4742.000000	47.268348
4740.000000	47.325787
4738.000000	47.383227
4736.000000	47.441497
4734.000000	47.500410
4732.000000	47.559304
4730.000000	47.618528
4728.000000	47.677690
4726.000000	47.736832
4724.000000	47.796100
4722.000000	47.855838
4720.000000	47.915152
4718.000000	47.976245
4716.000000	48.037937
4714.000000	48.099299
4712.000000	48.160672
4710.000000	48.222542
4708.000000	48.282910
4706.000000	48.343564
4704.000000	48.405622
4702.000000	48.469089
4700.000000	48.532350
4698.000000	48.595219
4696.000000	48.656852
4694.000000	48.717992
4692.000000	48.778713
4690.000000	48.840458
4688.000000	48.902180
4686.000000	48.963439
4684.000000	49.024837
4682.000000	49.087698
4680.000000	49.149771
4678.000000	49.211417
4676.000000	49.272658
4674.000000	49.333729
4672.000000	49.394936
4670.000000	49.456025
4668.000000	49.515649
4666.000000	49.576278
4664.000000	49.638576
4662.000000	49.699908
4660.000000	49.759036
4658.000000	49.817564
4656.000000	49.877354
4654.000000	49.939222
4652.000000	50.001011
4650.000000	50.062193
4648.000000	50.123150
4646.000000	50.184569
4644.000000	50.244883
4642.000000	50.304701
4640.000000	50.365199
4638.000000	50.427018
4636.000000	50.486983
4634.000000	50.545475
4632.000000	50.605099
4630.000000	50.667668
4628.000000	50.731299
4626.000000	50.793314
4624.000000	50.852080
4622.000000	50.911970
4620.000000	50.974976
4618.000000	51.038480
4616.000000	51.100475
4614.000000	51.164315
4612.000000	51.229410
4610.000000	51.293102
4608.000000	51.356040
4606.000000	51.421666
4604.000000	51.487562
4602.000000	51.551909
4600.000000	51.615423
4598.000000	51.680380
4596.000000	51.745223
4594.000000	51.810850
4592.000000	51.876076
4590.000000	51.940697
4588.000000	52.003854
4586.000000	52.066602
4584.000000	52.129778
4582.000000	52.194501
4580.000000	52.259585
4578.000000	52.323910
4576.000000	52.387538
4574.000000	52.450831
4572.000000	52.514399
4570.000000	52.578383
4568.000000	52.640597
4566.000000	52.701675
4564.000000	52.763460
4562.000000	52.827340
4560.000000	52.891674
4558.000000	52.955890
4556.000000	53.018034
4554.000000	53.079498
4552.000000	53.141785
4550.000000	53.204978
4548.000000	53.266962
4546.000000	53.328561
4544.000000	53.391099
4542.000000	53.455054
4540.000000	53.517747
4538.000000	53.578671
4536.000000	53.640110
4534.000000	53.702877
4532.000000	53.765616
4530.000000	53.829644
4528.000000	53.894412
4526.000000	53.958507
4524.000000	54.021410
4522.000000	54.084572
4520.000000	54.148259
4518.000000	54.212704
4516.000000	54.276337
4514.000000	54.340326
4512.000000	54.404596
4510.000000	54.470542
4508.000000	54.536713
4506.000000	54.601175
4504.000000	54.665312
4502.000000	54.731730
4500.000000	54.797244
4498.000000	54.860940
4496.000000	54.923773
4494.000000	54.988124
4492.000000	55.055117
4490.000000	55.123919
4488.000000	55.190817
4486.000000	55.255550
4484.000000	55.319142
4482.000000	55.382714
4480.000000	55.445429
4478.000000	55.509232
4476.000000	55.574092
4474.000000	55.638380
4472.000000	55.701525
4470.000000	55.763877
4468.000000	55.825343
4466.000000	55.887466
4464.000000	55.949107
4462.000000	56.010437
4460.000000	56.072602
4458.000000	56.136188
4456.000000	56.199566
4454.000000	56.262372
4452.000000	56.324072
4450.000000	56.385774
4448.000000	56.446966
4446.000000	56.507318
4444.000000	56.567309
4442.000000	56.630414
4440.000000	56.694725
4438.000000	56.757657
4436.000000	56.819789
4434.000000	56.883556
4432.000000	56.946932
4430.000000	57.010278
4428.000000	57.073182
4426.000000	57.135869
4424.000000	57.198048
4422.000000	57.261212
4420.000000	57.324715
4418.000000	57.389741
4416.000000	57.454659
4414.000000	57.517761
4412.000000	57.579814
4410.000000	57.644258
4408.000000	57.709997
4406.000000	57.775893
4404.000000	57.840869
4402.000000	57.905052
4400.000000	57.968873
4398.000000	58.033312
4396.000000	58.096716
4394.000000	58.159529
4392.000000	58.222845
4390.000000	58.285632
4388.000000	58.346161
4386.000000	58.407237
4384.000000	58.469498
4382.000000	58.531763
4380.000000	58.592158
4378.000000	58.652568
4376.000000	58.713029
4374.000000	58.773110
4372.000000	58.832523
4370.000000	58.891810
4368.000000	58.951070
4366.000000	59.012425
4364.000000	59.073377
4362.000000	59.133390
4360.000000	59.194606
4358.000000	59.256752
4356.000000	59.318552
4354.000000	59.381379
4352.000000	59.443680
4350.000000	59.505401
4348.000000	59.568017
4346.000000	59.632633
4344.000000	59.696736
4342.000000	59.758994
4340.000000	59.820982
4338.000000	59.885580
4336.000000	59.950393
4334.000000	60.013468
4332.000000	60.076946
4330.000000	60.143307
4328.000000	60.210034
4326.000000	60.275589
4324.000000	60.340220
4322.000000	60.405301
4320.000000	60.471369
4318.000000	60.538645
4316.000000	60.605488
4314.000000	60.672660
4312.000000	60.740641
4310.000000	60.809617
4308.000000	60.877591
4306.000000	60.943619
4304.000000	61.008576
4302.000000	61.074646
4300.000000	61.140505
4298.000000	61.206240
4296.000000	61.271853
4294.000000	61.337638
4292.000000	61.401927
4290.000000	61.464069
4288.000000	61.525499
4286.000000	61.588460
4284.000000	61.650885
4282.000000	61.711240
4280.000000	61.770375
4278.000000	61.830592
4276.000000	61.890861
4274.000000	61.950478
4272.000000	62.009157
4270.000000	62.067262
4268.000000	62.125156
4266.000000	62.184749
4264.000000	62.246833
4262.000000	62.309759
4260.000000	62.370413
4258.000000	62.432014
4256.000000	62.495166
4254.000000	62.558159
4252.000000	62.621673
4250.000000	62.686786
4248.000000	62.751779
4246.000000	62.816129
4244.000000	62.879844
4242.000000	62.944629
4240.000000	63.009557
4238.000000	63.073880
4236.000000	63.137333
4234.000000	63.202101
4232.000000	63.267329
4230.000000	63.331573
4228.000000	63.396086
4226.000000	63.460415
4224.000000	63.522720
4222.000000	63.586212
4220.000000	63.650942
4218.000000	63.715853
4216.000000	63.780551
4214.000000	63.845482
4212.000000	63.910220
4210.000000	63.976213
4208.000000	64.043093
4206.000000	64.109569
4204.000000	64.175820
4202.000000	64.244866
4200.000000	64.314310
4198.000000	64.381837
4196.000000	64.448350
4194.000000	64.515444
4192.000000	64.583313
4190.000000	64.652848
4188.000000	64.721426
4186.000000	64.788761
4184.000000	64.855993
4182.000000	64.924066
4180.000000	64.990431
4178.000000	65.053938
4176.000000	65.117559
4174.000000	65.183635
4172.000000	65.249190
4170.000000	65.314285
4168.000000	65.378433
4166.000000	65.441635
4164.000000	65.504735
4162.000000	65.569332
4160.000000	65.634880
4158.000000	65.699784
4156.000000	65.762761
4154.000000	65.826720
4152.000000	65.890991
4150.000000	65.955221
4148.000000	66.020843
4146.000000	66.087820
4144.000000	66.152959
4142.000000	66.216138
4140.000000	66.278864
4138.000000	66.343691
4136.000000	66.410187
4134.000000	66.478772
4132.000000	66.547211
4130.000000	66.613656
4128.000000	66.678829
4126.000000	66.744047
4124.000000	66.809420
4122.000000	66.876655
4120.000000	66.943611
4118.000000	67.009417
4116.000000	67.075242
4114.000000	67.143317
4112.000000	67.211000
4110.000000	67.274927
4108.000000	67.335860
4106.000000	67.399003
4104.000000	67.464680
4102.000000	67.530217
4100.000000	67.594183
4098.000000	67.658748
4096.000000	67.723774
4094.000000	67.788786
4092.000000	67.853401
4090.000000	67.919652
4088.000000	67.987503
4086.000000	68.056948
4084.000000	68.126500
4082.000000	68.194702
4080.000000	68.261469
4078.000000	68.329488
4076.000000	68.396393
4074.000000	68.461564
4072.000000	68.526738
4070.000000	68.592773
4068.000000	68.659399
4066.000000	68.726564
4064.000000	68.790892
4062.000000	68.854505
4060.000000	68.919986
4058.000000	68.985728
4056.000000	69.049964
4054.000000	69.114814
4052.000000	69.179578
4050.000000	69.244004
4048.000000	69.307148
4046.000000	69.369440
4044.000000	69.433498
4042.000000	69.501599
4040.000000	69.569707
4038.000000	69.636253
4036.000000	69.703474
4034.000000	69.771540
4032.000000	69.837944
4030.000000	69.905010
4028.000000	69.971978
4026.000000	70.038487
4024.000000	70.106479
4022.000000	70.174155
4020.000000	70.240693
4018.000000	70.311729
4016.000000	70.384990
4014.000000	70.454784
4012.000000	70.520583
4010.000000	70.585796
4008.000000	70.652935
4006.000000	70.723857
4004.000000	70.795392
4002.000000	70.864592
4000.000000	70.932498
3998.000000	70.998781
3996.000000	71.061096
3994.000000	71.123236
3992.000000	71.186728
3990.000000	71.252024
3988.000000	71.318312
3986.000000	71.383526
3984.000000	71.447113
3982.000000	71.510528
3980.000000	71.574073
3978.000000	71.635301
3976.000000	71.693172
3974.000000	71.753936
3972.000000	71.818535
3970.000000	71.882920
3968.000000	71.946537
3966.000000	72.007743
3964.000000	72.063082
3962.000000	72.120859
3960.000000	72.186015
3958.000000	72.251024
3956.000000	72.311282
3954.000000	72.366058
3952.000000	72.409701
3950.000000	72.452412
3948.000000	72.514103
3946.000000	72.580228
3944.000000	72.633122
3942.000000	72.703375
3940.000000	72.795831
3938.000000	72.875807
3936.000000	72.920574
3934.000000	72.938352
3932.000000	72.982810
3930.000000	73.076772
3928.000000	73.161287
3926.000000	73.214503
3924.000000	73.275361
3922.000000	73.334140
3920.000000	73.361268
3918.000000	73.404065
3916.000000	73.515013
3914.000000	73.651645
3912.000000	73.751736
3910.000000	73.807813
3908.000000	73.789770
3906.000000	73.682944
3904.000000	73.596722
3902.000000	73.632107
3900.000000	73.784916
3898.000000	74.007689
3896.000000	74.175286
3894.000000	74.181551
3892.000000	74.152178
3890.000000	74.219984
3888.000000	74.240457
3886.000000	74.226963
3884.000000	74.336557
3882.000000	74.456647
3880.000000	74.560278
3878.000000	74.687946
3876.000000	74.734633
3874.000000	74.685564
3872.000000	74.568805
3870.000000	74.544983
3868.000000	74.697028
3866.000000	74.823904
3864.000000	74.919766
3862.000000	75.082598
3860.000000	75.219336
3858.000000	75.084322
3856.000000	74.545725
3854.000000	74.181921
3852.000000	74.563960
3850.000000	75.250396
3848.000000	75.636058
3846.000000	75.707263
3844.000000	75.667185
3842.000000	75.569386
3840.000000	75.363732
3838.000000	75.280616
3836.000000	75.516242
3834.000000	75.815426
3832.000000	76.005142
3830.000000	76.152296
3828.000000	76.252036
3826.000000	76.284730
3824.000000	76.183540
3822.000000	76.052898
3820.000000	76.085009
3818.000000	76.099934
3816.000000	76.164613
3814.000000	76.502524
3812.000000	76.800083
3810.000000	76.780020
3808.000000	76.634896
3806.000000	76.643546
3804.000000	76.617216
3802.000000	76.529767
3800.000000	76.723116
3798.000000	77.027838
3796.000000	77.219631
3794.000000	77.376588
3792.000000	77.493309
3790.000000	77.559175
3788.000000	77.597086
3786.000000	77.628634
3784.000000	77.671847
3782.000000	77.691509
3780.000000	77.708119
3778.000000	77.805765
3776.000000	77.933470
3774.000000	77.979524
3772.000000	77.923957
3770.000000	77.895375
3768.000000	77.971263
3766.000000	78.082441
3764.000000	78.184546
3762.000000	78.215085
3760.000000	78.201734
3758.000000	78.250860
3756.000000	78.219984
3754.000000	77.908539
3752.000000	77.570226
3750.000000	77.607828
3748.000000	77.777198
3746.000000	77.674655
3744.000000	77.795008
3742.000000	78.351397
3740.000000	78.653389
3738.000000	78.532491
3736.000000	78.419323
3734.000000	78.509711
3732.000000	78.747362
3730.000000	79.021560
3728.000000	79.156975
3726.000000	79.198630
3724.000000	79.266472
3722.000000	79.360765
3720.000000	79.475736
3718.000000	79.579324
3716.000000	79.567695
3714.000000	79.382194
3712.000000	79.266453
3710.000000	79.435199
3708.000000	79.723873
3706.000000	79.904086
3704.000000	79.927007
3702.000000	79.934600
3700.000000	80.041687
3698.000000	80.160957
3696.000000	80.211092
3694.000000	80.157259
3692.000000	79.942484
3690.000000	79.693904
3688.000000	79.782052
3686.000000	80.184331
3684.000000	80.464795
3682.000000	80.509935
3680.000000	80.388471
3678.000000	80.069636
3676.000000	79.844824
3674.000000	79.960001
3672.000000	80.049546
3670.000000	80.142412
3668.000000	80.481341
3666.000000	80.794147
3664.000000	80.918932
3662.000000	80.953012
3660.000000	80.910746
3658.000000	80.778969
3656.000000	80.739141
3654.000000	80.763657
3652.000000	80.554466
3650.000000	80.306749
3648.000000	80.434668
3646.000000	80.810943
3644.000000	81.079374
3642.000000	81.178049
3640.000000	81.211812
3638.000000	81.223150
3636.000000	81.207851
3634.000000	81.146850
3632.000000	80.920019
3630.000000	80.627723
3628.000000	80.711515
3626.000000	81.077500
3624.000000	81.257184
3622.000000	81.163644
3620.000000	81.025270
3618.000000	81.056418
3616.000000	81.146531
3614.000000	81.141156
3612.000000	81.089364
3610.000000	81.054935
3608.000000	81.123455
3606.000000	81.275434
3604.000000	81.360671
3602.000000	81.355604
3600.000000	81.335686
3598.000000	81.317657
3596.000000	81.294482
3594.000000	81.301958
3592.000000	81.293466
3590.000000	81.182047
3588.000000	81.091068
3586.000000	81.168257
3584.000000	81.302226
3582.000000	81.361567
3580.000000	81.365999
3578.000000	81.361949
3576.000000	81.359330
3574.000000	81.356415
3572.000000	81.320221
3570.000000	81.202167
3568.000000	81.086608
3566.000000	81.112996
3564.000000	81.218055
3562.000000	81.277752
3560.000000	81.296670
3558.000000	81.307810
3556.000000	81.299812
3554.000000	81.270450
3552.000000	81.251914
3550.000000	81.239363
3548.000000	81.197497
3546.000000	81.163247
3544.000000	81.179886
3542.000000	81.213884
3540.000000	81.218829
3538.000000	81.195005
3536.000000	81.174231
3534.000000	81.163525
3532.000000	81.134486
3530.000000	81.082924
3528.000000	81.031927
3526.000000	80.990475
3524.000000	80.955852
3522.000000	80.933723
3520.000000	80.913561
3518.000000	80.886738
3516.000000	80.856765
3514.000000	80.818141
3512.000000	80.765457
3510.000000	80.711656
3508.000000	80.670158
3506.000000	80.617128
3504.000000	80.547099
3502.000000	80.497270
3500.000000	80.463730
3498.000000	80.415606
3496.000000	80.359043
3494.000000	80.308204
3492.000000	80.256531
3490.000000	80.199692
3488.000000	80.147350
3486.000000	80.106561
3484.000000	80.066927
3482.000000	80.030541
3480.000000	80.013370
3478.000000	80.010232
3476.000000	80.008084
3474.000000	80.011241
3472.000000	80.019563
3470.000000	80.029167
3468.000000	80.046181
3466.000000	80.075055
3464.000000	80.109601
3462.000000	80.146713
3460.000000	80.186747
3458.000000	80.224303
3456.000000	80.255841
3454.000000	80.283083
3452.000000	80.304186
3450.000000	80.313361
3448.000000	80.319401
3446.000000	80.346098
3444.000000	80.392349
3442.000000	80.450090
3440.000000	80.523615
3438.000000	80.610930
3436.000000	80.713422
3434.000000	80.837238
3432.000000	80.975756
3430.000000	81.117444
3428.000000	81.258481
3426.000000	81.393569
3424.000000	81.514869
3422.000000	81.625235
3420.000000	81.735727
3418.000000	81.843799
3416.000000	81.938848
3414.000000	82.020309
3412.000000	82.094362
3410.000000	82.161276
3408.000000	82.222567
3406.000000	82.280151
3404.000000	82.332112
3402.000000	82.382946
3400.000000	82.442223
3398.000000	82.515719
3396.000000	82.594050
3394.000000	82.664166
3392.000000	82.732844
3390.000000	82.810328
3388.000000	82.884463
3386.000000	82.946994
3384.000000	83.004829
3382.000000	83.060925
3380.000000	83.113252
3378.000000	83.163052
3376.000000	83.212119
3374.000000	83.259794
3372.000000	83.301010
3370.000000	83.335819
3368.000000	83.377842
3366.000000	83.427758
3364.000000	83.476130
3362.000000	83.521531
3360.000000	83.566274
3358.000000	83.608635
3356.000000	83.648197
3354.000000	83.688035
3352.000000	83.728148
3350.000000	83.770691
3348.000000	83.815486
3346.000000	83.858196
3344.000000	83.898861
3342.000000	83.939069
3340.000000	83.975300
3338.000000	84.011513
3336.000000	84.054272
3334.000000	84.097732
3332.000000	84.137178
3330.000000	84.173139
3328.000000	84.207227
3326.000000	84.242871
3324.000000	84.281993
3322.000000	84.321778
3320.000000	84.359315
3318.000000	84.395420
3316.000000	84.430271
3314.000000	84.463154
3312.000000	84.495061
3310.000000	84.524514
3308.000000	84.550444
3306.000000	84.580558
3304.000000	84.622270
3302.000000	84.667980
3300.000000	84.707677
3298.000000	84.742686
3296.000000	84.774769
3294.000000	84.805976
3292.000000	84.841859
3290.000000	84.883586
3288.000000	84.924937
3286.000000	84.964637
3284.000000	85.003396
3282.000000	85.040434
3280.000000	85.077672
3278.000000	85.112615
3276.000000	85.144994
3274.000000	85.181535
3272.000000	85.221608
3270.000000	85.265285
3268.000000	85.312345
3266.000000	85.357192
3264.000000	85.399222
3262.000000	85.441060
3260.000000	85.485931
3258.000000	85.530760
3256.000000	85.573620
3254.000000	85.619108
3252.000000	85.668262
3250.000000	85.716431
3248.000000	85.762648
3246.000000	85.808678
3244.000000	85.859579
3242.000000	85.913291
3240.000000	85.964912
3238.000000	86.014325
3236.000000	86.060964
3234.000000	86.104954
3232.000000	86.153015
3230.000000	86.206610
3228.000000	86.259782
3226.000000	86.309861
3224.000000	86.358748
3222.000000	86.406093
3220.000000	86.450947
3218.000000	86.497764
3216.000000	86.546004
3214.000000	86.593162
3212.000000	86.642059
3210.000000	86.694529
3208.000000	86.753995
3206.000000	86.819097
3204.000000	86.886251
3202.000000	86.954990
3200.000000	87.024085
3198.000000	87.092490
3196.000000	87.164865
3194.000000	87.240017
3192.000000	87.313204
3190.000000	87.384228
3188.000000	87.455845
3186.000000	87.527226
3184.000000	87.597571
3182.000000	87.667387
3180.000000	87.735704
3178.000000	87.805323
3176.000000	87.878506
3174.000000	87.951837
3172.000000	88.024481
3170.000000	88.097300
3168.000000	88.171621
3166.000000	88.247532
3164.000000	88.323857
3162.000000	88.399902
3160.000000	88.476717
3158.000000	88.554076
3156.000000	88.630925
3154.000000	88.704457
3152.000000	88.779893
3150.000000	88.861506
3148.000000	88.942318
3146.000000	89.019077
3144.000000	89.093784
3142.000000	89.166595
3140.000000	89.237908
3138.000000	89.308176
3136.000000	89.377520
3134.000000	89.444645
3132.000000	89.512018
3130.000000	89.578737
3128.000000	89.641502
3126.000000	89.702691
3124.000000	89.762627
3122.000000	89.817481
3120.000000	89.868661
3118.000000	89.919344
3116.000000	89.972911
3114.000000	90.032094
3112.000000	90.090344
3110.000000	90.142439
3108.000000	90.194628
3106.000000	90.251261
3104.000000	90.309417
3102.000000	90.368535
3100.000000	90.432105
3098.000000	90.496960
3096.000000	90.561054
3094.000000	90.627547
3092.000000	90.691388
3090.000000	90.751271
3088.000000	90.810642
3086.000000	90.865018
3084.000000	90.913008
3082.000000	90.954989
3080.000000	90.992343
3078.000000	91.029862
3076.000000	91.068481
3074.000000	91.097758
3072.000000	91.113325
3070.000000	91.121356
3068.000000	91.129163
3066.000000	91.146394
3064.000000	91.181254
3062.000000	91.230502
3060.000000	91.285188
3058.000000	91.340875
3056.000000	91.401019
3054.000000	91.463330
3052.000000	91.520034
3050.000000	91.571367
3048.000000	91.619710
3046.000000	91.660265
3044.000000	91.691392
3042.000000	91.718008
3040.000000	91.744180
3038.000000	91.764078
3036.000000	91.772581
3034.000000	91.772395
3032.000000	91.761878
3030.000000	91.727625
3028.000000	91.656789
3026.000000	91.548377
3024.000000	91.418749
3022.000000	91.301267
3020.000000	91.236866
3018.000000	91.265806
3016.000000	91.409004
3014.000000	91.648161
3012.000000	91.934467
3010.000000	92.210306
3008.000000	92.434348
3006.000000	92.593914
3004.000000	92.704646
3002.000000	92.783354
3000.000000	92.841668
2998.000000	92.884884
2996.000000	92.914766
2994.000000	92.933927
2992.000000	92.944904
2990.000000	92.944868
2988.000000	92.928898
2986.000000	92.893791
2984.000000	92.836558
2982.000000	92.749103
2980.000000	92.626935
2978.000000	92.461340
2976.000000	92.235051
2974.000000	91.929186
2972.000000	91.533446
2970.000000	91.050892
2968.000000	90.526544
2966.000000	90.043655
2964.000000	89.688986
2962.000000	89.518128
2960.000000	89.533192
2958.000000	89.677352
2956.000000	89.871377
2954.000000	90.055689
2952.000000	90.195997
2950.000000	90.264156
2948.000000	90.227180
2946.000000	90.062804
2944.000000	89.767451
2942.000000	89.353977
2940.000000	88.860643
2938.000000	88.348877
2936.000000	87.876631
2934.000000	87.456415
2932.000000	87.060099
2930.000000	86.671575
2928.000000	86.341171
2926.000000	86.176645
2924.000000	86.287049
2922.000000	86.710857
2920.000000	87.390197
2918.000000	88.210118
2916.000000	89.063131
2914.000000	89.866572
2912.000000	90.556990
2910.000000	91.104695
2908.000000	91.530624
2906.000000	91.878443
2904.000000	92.182415
2902.000000	92.457455
2900.000000	92.711590
2898.000000	92.950938
2896.000000	93.177882
2894.000000	93.392448
2892.000000	93.595155
2890.000000	93.780961
2888.000000	93.944091
2886.000000	94.073736
2884.000000	94.161336
2882.000000	94.204560
2880.000000	94.199943
2878.000000	94.143754
2876.000000	94.033250
2874.000000	93.857244
2872.000000	93.603294
2870.000000	93.242777
2868.000000	92.754852
2866.000000	92.179421
2864.000000	91.637834
2862.000000	91.286605
2860.000000	91.213457
2858.000000	91.381117
2856.000000	91.683112
2854.000000	92.040531
2852.000000	92.454159
2850.000000	92.962441
2848.000000	93.568522
2846.000000	94.190366
2844.000000	94.730758
2842.000000	95.161310
2840.000000	95.501277
2838.000000	95.770737
2836.000000	95.989674
2834.000000	96.171451
2832.000000	96.327645
2830.000000	96.463535
2828.000000	96.583093
2826.000000	96.694293
2824.000000	96.798126
2822.000000	96.891192
2820.000000	96.976888
2818.000000	97.054025
2816.000000	97.123193
2814.000000	97.186066
2812.000000	97.242894
2810.000000	97.294492
2808.000000	97.345313
2806.000000	97.394560
2804.000000	97.441878
2802.000000	97.486942
2800.000000	97.530707
2798.000000	97.571860
2796.000000	97.611311
2794.000000	97.651815
2792.000000	97.698501
2790.000000	97.754455
2788.000000	97.824089
2786.000000	97.906889
2784.000000	97.993109
2782.000000	98.073370
2780.000000	98.146691
2778.000000	98.213692
2776.000000	98.276481
2774.000000	98.335276
2772.000000	98.389438
2770.000000	98.440541
2768.000000	98.491490
2766.000000	98.540600
2764.000000	98.589906
2762.000000	98.637388
2760.000000	98.682162
2758.000000	98.725698
2756.000000	98.769463
2754.000000	98.810204
2752.000000	98.850237
2750.000000	98.887773
2748.000000	98.923203
2746.000000	98.959529
2744.000000	98.996184
2742.000000	99.030205
2740.000000	99.065122
2738.000000	99.099098
2736.000000	99.132298
2734.000000	99.166196
2732.000000	99.201359
2730.000000	99.235052
2728.000000	99.268667
2726.000000	99.301257
2724.000000	99.332832
2722.000000	99.364713
2720.000000	99.398538
2718.000000	99.430153
2716.000000	99.459775
2714.000000	99.487938
2712.000000	99.513959
2710.000000	99.536460
2708.000000	99.560039
2706.000000	99.585571
2704.000000	99.614601
2702.000000	99.650544
2700.000000	99.693362
2698.000000	99.740202
2696.000000	99.790024
2694.000000	99.835772
2692.000000	99.878862
2690.000000	99.921176
2688.000000	99.963077
2686.000000	100.002407
2684.000000	100.041648
2682.000000	100.079223
2680.000000	100.114177
2678.000000	100.146875
2676.000000	100.179228
2674.000000	100.211289
2672.000000	100.243541
2670.000000	100.273840
2668.000000	100.303710
2666.000000	100.332861
2664.000000	100.360839
2662.000000	100.388554
2660.000000	100.418717
2658.000000	100.450332
2656.000000	100.484188
2654.000000	100.520890
2652.000000	100.560012
2650.000000	100.599982
2648.000000	100.640952
2646.000000	100.680702
2644.000000	100.718483
2642.000000	100.753728
2640.000000	100.788451
2638.000000	100.822528
2636.000000	100.860365
2634.000000	100.894780
2632.000000	100.924277
2630.000000	100.952832
2628.000000	100.982143
2626.000000	101.009921
2624.000000	101.037672
2622.000000	101.064588
2620.000000	101.092401
2618.000000	101.120731
2616.000000	101.148502
2614.000000	101.172497
2612.000000	101.196190
2610.000000	101.218411
2608.000000	101.238874
2606.000000	101.257091
2604.000000	101.272958
2602.000000	101.285078
2600.000000	101.294742
2598.000000	101.303892
2596.000000	101.315559
2594.000000	101.330707
2592.000000	101.354263
2590.000000	101.386623
2588.000000	101.429171
2586.000000	101.480209
2584.000000	101.539936
2582.000000	101.602217
2580.000000	101.664204
2578.000000	101.723505
2576.000000	101.777543
2574.000000	101.824018
2572.000000	101.865282
2570.000000	101.905590
2568.000000	101.944390
2566.000000	101.978778
2564.000000	102.012031
2562.000000	102.042456
2560.000000	102.071602
2558.000000	102.099020
2556.000000	102.128216
2554.000000	102.156179
2552.000000	102.183228
2550.000000	102.211150
2548.000000	102.238452
2546.000000	102.262352
2544.000000	102.287057
2542.000000	102.312917
2540.000000	102.340490
2538.000000	102.367518
2536.000000	102.393875
2534.000000	102.419869
2532.000000	102.449364
2530.000000	102.477840
2528.000000	102.502166
2526.000000	102.524695
2524.000000	102.550290
2522.000000	102.574951
2520.000000	102.599578
2518.000000	102.622373
2516.000000	102.643600
2514.000000	102.665596
2512.000000	102.689664
2510.000000	102.711962
2508.000000	102.735054
2506.000000	102.757082
2504.000000	102.777272
2502.000000	102.797702
2500.000000	102.821907
2498.000000	102.848014
2496.000000	102.875073
2494.000000	102.900839
2492.000000	102.927094
2490.000000	102.953701
2488.000000	102.980858
2486.000000	103.006807
2484.000000	103.034857
2482.000000	103.062118
2480.000000	103.087229
2478.000000	103.110752
2476.000000	103.134365
2474.000000	103.154504
2472.000000	103.173967
2470.000000	103.193696
2468.000000	103.211550
2466.000000	103.229007
2464.000000	103.248084
2462.000000	103.262937
2460.000000	103.277679
2458.000000	103.293658
2456.000000	103.312050
2454.000000	103.330201
2452.000000	103.347542
2450.000000	103.363208
2448.000000	103.379478
2446.000000	103.395190
2444.000000	103.412146
2442.000000	103.428655
2440.000000	103.445602
2438.000000	103.460440
2436.000000	103.474435
2434.000000	103.486971
2432.000000	103.500338
2430.000000	103.512630
2428.000000	103.525114
2426.000000	103.538292
2424.000000	103.554689
2422.000000	103.571951
2420.000000	103.587404
2418.000000	103.599361
2416.000000	103.612452
2414.000000	103.625369
2412.000000	103.637512
2410.000000	103.649993
2408.000000	103.662844
2406.000000	103.674912
2404.000000	103.690332
2402.000000	103.705567
2400.000000	103.722823
2398.000000	103.741041
2396.000000	103.760258
2394.000000	103.777779
2392.000000	103.793602
2390.000000	103.809107
2388.000000	103.823746
2386.000000	103.831742
2384.000000	103.828530
2382.000000	103.803419
2380.000000	103.751957
2378.000000	103.666520
2376.000000	103.542490
2374.000000	103.381194
2372.000000	103.194369
2370.000000	102.993350
2368.000000	102.801132
2366.000000	102.640458
2364.000000	102.536064
2362.000000	102.504919
2360.000000	102.553251
2358.000000	102.677992
2356.000000	102.879741
2354.000000	103.143673
2352.000000	103.435180
2350.000000	103.644566
2348.000000	103.632491
2346.000000	103.446226
2344.000000	103.248657
2342.000000	103.105336
2340.000000	103.024438
2338.000000	102.990380
2336.000000	102.990187
2334.000000	103.018518
2332.000000	103.071528
2330.000000	103.143375
2328.000000	103.233224
2326.000000	103.330731
2324.000000	103.431956
2322.000000	103.533701
2320.000000	103.629666
2318.000000	103.714213
2316.000000	103.792265
2314.000000	103.863383
2312.000000	103.926122
2310.000000	103.978152
2308.000000	104.020515
2306.000000	104.054823
2304.000000	104.085084
2302.000000	104.111137
2300.000000	104.133860
2298.000000	104.151880
2296.000000	104.168346
2294.000000	104.182872
2292.000000	104.195995
2290.000000	104.207612
2288.000000	104.218989
2286.000000	104.226821
2284.000000	104.231592
2282.000000	104.231602
2280.000000	104.231168
2278.000000	104.227900
2276.000000	104.224335
2274.000000	104.219111
2272.000000	104.214629
2270.000000	104.208871
2268.000000	104.202984
2266.000000	104.197256
2264.000000	104.195628
2262.000000	104.193441
2260.000000	104.192480
2258.000000	104.190152
2256.000000	104.188950
2254.000000	104.189537
2252.000000	104.194880
2250.000000	104.202061
2248.000000	104.211693
2246.000000	104.220242
2244.000000	104.231071
2242.000000	104.243039
2240.000000	104.255631
2238.000000	104.267628
2236.000000	104.281999
2234.000000	104.296146
2232.000000	104.313073
2230.000000	104.328419
2228.000000	104.340550
2226.000000	104.350447
2224.000000	104.361757
2222.000000	104.371549
2220.000000	104.380205
2218.000000	104.387894
2216.000000	104.395216
2214.000000	104.400685
2212.000000	104.407653
2210.000000	104.409661
2208.000000	104.414504
2206.000000	104.420923
2204.000000	104.426325
2202.000000	104.429655
2200.000000	104.435992
2198.000000	104.440720
2196.000000	104.444940
2194.000000	104.445198
2192.000000	104.445880
2190.000000	104.447483
2188.000000	104.448813
2186.000000	104.448928
2184.000000	104.448963
2182.000000	104.446080
2180.000000	104.446578
2178.000000	104.444907
2176.000000	104.441335
2174.000000	104.432326
2172.000000	104.410691
2170.000000	104.388145
2168.000000	104.401997
2166.000000	104.425984
2164.000000	104.432657
2162.000000	104.430682
2160.000000	104.429811
2158.000000	104.428534
2156.000000	104.430833
2154.000000	104.431262
2152.000000	104.429834
2150.000000	104.426245
2148.000000	104.426296
2146.000000	104.426040
2144.000000	104.427141
2142.000000	104.425720
2140.000000	104.423629
2138.000000	104.419163
2136.000000	104.417927
2134.000000	104.419892
2132.000000	104.420072
2130.000000	104.415774
2128.000000	104.414548
2126.000000	104.414861
2124.000000	104.416211
2122.000000	104.416994
2120.000000	104.416649
2118.000000	104.418838
2116.000000	104.424480
2114.000000	104.431694
2112.000000	104.442806
2110.000000	104.453468
2108.000000	104.464686
2106.000000	104.475480
2104.000000	104.489749
2102.000000	104.503109
2100.000000	104.517172
2098.000000	104.528237
2096.000000	104.540174
2094.000000	104.550592
2092.000000	104.562574
2090.000000	104.574775
2088.000000	104.593598
2086.000000	104.609558
2084.000000	104.627236
2082.000000	104.643604
2080.000000	104.661943
2078.000000	104.675358
2076.000000	104.691378
2074.000000	104.708065
2072.000000	104.728593
2070.000000	104.746700
2068.000000	104.761601
2066.000000	104.771230
2064.000000	104.792574
2062.000000	104.820235
2060.000000	104.846096
2058.000000	104.869488
2056.000000	104.890893
2054.000000	104.909767
2052.000000	104.931459
2050.000000	104.950059
2048.000000	104.971601
2046.000000	104.989896
2044.000000	105.006326
2042.000000	105.019957
2040.000000	105.040645
2038.000000	105.057963
2036.000000	105.070060
2034.000000	105.077987
2032.000000	105.078371
2030.000000	105.059728
2028.000000	105.069346
2026.000000	105.107166
2024.000000	105.130936
2022.000000	105.138944
2020.000000	105.139027
2018.000000	105.136386
2016.000000	105.159902
2014.000000	105.194688
2012.000000	105.218686
2010.000000	105.233386
2008.000000	105.248212
2006.000000	105.261294
2004.000000	105.272573
2002.000000	105.279205
2000.000000	105.284749
1998.000000	105.288988
1996.000000	105.290010
1994.000000	105.261628
1992.000000	105.235656
1990.000000	105.254092
1988.000000	105.274950
1986.000000	105.282057
1984.000000	105.279712
1982.000000	105.268484
1980.000000	105.257540
1978.000000	105.242953
1976.000000	105.226287
1974.000000	105.208601
1972.000000	105.190442
1970.000000	105.158444
1968.000000	105.112070
1966.000000	105.092709
1964.000000	105.088144
1962.000000	105.030000
1960.000000	104.907528
1958.000000	104.876739
1956.000000	104.957927
1954.000000	104.986958
1952.000000	104.969194
1950.000000	104.936541
1948.000000	104.913757
1946.000000	104.875589
1944.000000	104.803167
1942.000000	104.768635
1940.000000	104.811961
1938.000000	104.821584
1936.000000	104.799307
1934.000000	104.767665
1932.000000	104.743041
1930.000000	104.716534
1928.000000	104.687795
1926.000000	104.635014
1924.000000	104.558578
1922.000000	104.509859
1920.000000	104.429819
1918.000000	104.328104
1916.000000	104.377694
1914.000000	104.408131
1912.000000	104.353797
1910.000000	104.274825
1908.000000	104.229315
1906.000000	104.191639
1904.000000	104.148267
1902.000000	104.096446
1900.000000	104.048711
1898.000000	103.988393
1896.000000	103.928479
1894.000000	103.896940
1892.000000	103.851734
1890.000000	103.766946
1888.000000	103.785413
1886.000000	103.821548
1884.000000	103.814540
1882.000000	103.793421
1880.000000	103.773612
1878.000000	103.748215
1876.000000	103.727608
1874.000000	103.692998
1872.000000	103.585454
1870.000000	103.378679
1868.000000	103.346439
1866.000000	103.473306
1864.000000	103.532949
1862.000000	103.511651
1860.000000	103.480871
1858.000000	103.449272
1856.000000	103.422387
1854.000000	103.384140
1852.000000	103.346376
1850.000000	103.278327
1848.000000	103.161224
1846.000000	102.866073
1844.000000	102.676660
1842.000000	102.895118
1840.000000	103.037822
1838.000000	102.986372
1836.000000	102.933894
1834.000000	102.867238
1832.000000	102.671665
1830.000000	102.473364
1828.000000	102.486855
1826.000000	102.440710
1824.000000	102.427349
1822.000000	102.480642
1820.000000	102.446192
1818.000000	102.364133
1816.000000	102.298461
1814.000000	102.207717
1812.000000	102.067794
1810.000000	101.969982
1808.000000	101.935881
1806.000000	101.860116
1804.000000	101.706732
1802.000000	101.491005
1800.000000	101.365083
1798.000000	101.333261
1796.000000	101.207856
1794.000000	100.823544
1792.000000	100.592628
1790.000000	100.760257
1788.000000	100.831132
1786.000000	100.655503
1784.000000	100.523848
1782.000000	100.424878
1780.000000	100.318883
1778.000000	100.246613
1776.000000	100.024000
1774.000000	99.497967
1772.000000	99.223972
1770.000000	99.423618
1768.000000	99.521318
1766.000000	99.616125
1764.000000	99.483270
1762.000000	99.215929
1760.000000	99.193726
1758.000000	99.096880
1756.000000	98.961218
1754.000000	98.770170
1752.000000	98.280015
1750.000000	98.078929
1748.000000	98.148484
1746.000000	98.127272
1744.000000	97.974422
1742.000000	97.702314
1740.000000	97.442355
1738.000000	97.375096
1736.000000	96.799898
1734.000000	96.222670
1732.000000	96.720751
1730.000000	97.193876
1728.000000	97.288668
1726.000000	97.258809
1724.000000	97.173667
1722.000000	97.041480
1720.000000	96.496166
1718.000000	95.748544
1716.000000	95.860203
1714.000000	96.360328
1712.000000	96.580273
1710.000000	96.504029
1708.000000	96.262701
1706.000000	95.978231
1704.000000	95.808199
1702.000000	95.106768
1700.000000	94.585947
1698.000000	94.749210
1696.000000	94.676709
1694.000000	95.296018
1692.000000	95.837153
1690.000000	95.778364
1688.000000	95.469080
1686.000000	94.521810
1684.000000	94.155562
1682.000000	94.963398
1680.000000	95.408773
1678.000000	95.275784
1676.000000	94.855921
1674.000000	94.822178
1672.000000	94.823437
1670.000000	94.545030
1668.000000	94.656105
1666.000000	94.835137
1664.000000	94.600092
1662.000000	94.461159
1660.000000	94.569871
1658.000000	94.469137
1656.000000	93.661175
1654.000000	92.191920
1652.000000	92.256592
1650.000000	93.344956
1648.000000	93.231836
1646.000000	92.980411
1644.000000	93.353376
1642.000000	93.547918
1640.000000	93.348115
1638.000000	92.764840
1636.000000	92.090964
1634.000000	92.297712
1632.000000	92.670266
1630.000000	92.485317
1628.000000	92.131905
1626.000000	91.754891
1624.000000	91.216915
1622.000000	90.832368
1620.000000	90.422891
1618.000000	89.552473
1616.000000	89.084496
1614.000000	89.106912
1612.000000	88.643062
1610.000000	88.019268
1608.000000	87.697983
1606.000000	87.728974
1604.000000	87.925916
1602.000000	88.170348
1600.000000	88.405433
1598.000000	88.607177
1596.000000	88.753499
1594.000000	88.869119
1592.000000	88.936939
1590.000000	88.941208
1588.000000	88.900017
1586.000000	88.831812
1584.000000	88.757104
1582.000000	88.703924
1580.000000	88.586442
1578.000000	88.016997
1576.000000	87.607627
1574.000000	88.101331
1572.000000	88.234224
1570.000000	87.898808
1568.000000	87.881740
1566.000000	87.860428
1564.000000	87.575379
1562.000000	86.710936
1560.000000	85.376973
1558.000000	85.359179
1556.000000	86.270460
1554.000000	86.818708
1552.000000	87.265041
1550.000000	87.547560
1548.000000	87.725197
1546.000000	87.685150
1544.000000	87.473828
1542.000000	87.043350
1540.000000	86.834630
1538.000000	87.710842
1536.000000	88.576421
1534.000000	88.645713
1532.000000	88.884520
1530.000000	89.111529
1528.000000	88.996177
1526.000000	88.797873
1524.000000	88.537294
1522.000000	88.047661
1520.000000	88.081932
1518.000000	88.258557
1516.000000	88.161079
1514.000000	88.068701
1512.000000	87.875246
1510.000000	87.448624
1508.000000	86.419941
1506.000000	85.778050
1504.000000	85.845143
1502.000000	84.931932
1500.000000	82.501689
1498.000000	79.262887
1496.000000	76.753456
1494.000000	76.313940
1492.000000	77.414417
1490.000000	79.200377
1488.000000	81.129949
1486.000000	82.689689
1484.000000	83.708257
1482.000000	84.218610
1480.000000	84.456526
1478.000000	84.407199
1476.000000	84.111816
1474.000000	83.653157
1472.000000	83.461530
1470.000000	83.613525
1468.000000	83.434133
1466.000000	82.885561
1464.000000	82.497612
1462.000000	82.196345
1460.000000	81.299573
1458.000000	79.779365
1456.000000	78.748912
1454.000000	78.311378
1452.000000	77.806885
1450.000000	77.887925
1448.000000	78.729713
1446.000000	79.696666
1444.000000	80.177637
1442.000000	80.291458
1440.000000	80.206860
1438.000000	79.882261
1436.000000	79.863350
1434.000000	80.262605
1432.000000	80.343749
1430.000000	80.277519
1428.000000	80.299884
1426.000000	80.301148
1424.000000	80.202474
1422.000000	79.986990
1420.000000	79.521218
1418.000000	79.440768
1416.000000	79.572774
1414.000000	79.441884
1412.000000	79.088222
1410.000000	78.559260
1408.000000	77.807789
1406.000000	76.992795
1404.000000	76.525831
1402.000000	76.541458
1400.000000	76.779768
1398.000000	77.213725
1396.000000	77.594592
1394.000000	77.912157
1392.000000	78.225117
1390.000000	78.228767
1388.000000	77.922219
1386.000000	77.638849
1384.000000	77.538606
1382.000000	77.644275
1380.000000	77.742043
1378.000000	77.689514
1376.000000	77.536325
1374.000000	77.403190
1372.000000	77.363762
1370.000000	77.267352
1368.000000	77.111217
1366.000000	76.951877
1364.000000	76.726459
1362.000000	76.541659
1360.000000	76.441311
1358.000000	76.307296
1356.000000	76.113291
1354.000000	75.908399
1352.000000	75.702341
1350.000000	75.489390
1348.000000	75.269482
1346.000000	75.038016
1344.000000	74.787983
1342.000000	74.516408
1340.000000	74.264482
1338.000000	74.124024
1336.000000	74.048631
1334.000000	73.952212
1332.000000	73.801725
1330.000000	73.612239
1328.000000	73.390115
1326.000000	73.147465
1324.000000	72.882292
1322.000000	72.598896
1320.000000	72.294717
1318.000000	71.996781
1316.000000	71.700398
1314.000000	71.387982
1312.000000	71.074779
1310.000000	70.762038
1308.000000	70.434526
1306.000000	70.104334
1304.000000	69.764660
1302.000000	69.422118
1300.000000	69.075494
1298.000000	68.727486
1296.000000	68.374348
1294.000000	68.010434
1292.000000	67.626502
1290.000000	67.231010
1288.000000	66.829371
1286.000000	66.429183
1284.000000	66.015421
1282.000000	65.583362
1280.000000	65.125032
1278.000000	64.634979
1276.000000	64.094492
1274.000000	63.480727
1272.000000	62.753687
1270.000000	61.870241
1268.000000	60.765449
1266.000000	59.447030
1264.000000	58.076095
1262.000000	56.978953
1260.000000	56.435088
1258.000000	56.445885
1256.000000	56.734602
1254.000000	56.975556
1252.000000	56.973346
1250.000000	56.727820
1248.000000	56.327911
1246.000000	55.855932
1244.000000	55.349970
1242.000000	54.837481
1240.000000	54.329498
1238.000000	53.836992
1236.000000	53.363096
1234.000000	52.902506
1232.000000	52.447748
1230.000000	52.002029
1228.000000	51.556411
1226.000000	51.107181
1224.000000	50.648327
1222.000000	50.175988
1220.000000	49.684492
1218.000000	49.173437
1216.000000	48.651654
1214.000000	48.137330
1212.000000	47.644908
1210.000000	47.192606
1208.000000	46.775175
1206.000000	46.377433
1204.000000	45.980596
1202.000000	45.583561
1200.000000	45.191093
1198.000000	44.804764
1196.000000	44.413364
1194.000000	44.010058
1192.000000	43.591805
1190.000000	43.162508
1188.000000	42.720001
1186.000000	42.248794
1184.000000	41.665501
1182.000000	40.940779
1180.000000	40.376697
1178.000000	40.128044
1176.000000	39.896615
1174.000000	39.541819
1172.000000	39.115729
1170.000000	38.666549
1168.000000	38.199233
1166.000000	37.724088
1164.000000	37.251742
1162.000000	36.790988
1160.000000	36.336727
1158.000000	35.902476
1156.000000	35.483013
1154.000000	35.063988
1152.000000	34.637708
1150.000000	34.218046
1148.000000	33.788045
1146.000000	33.348728
1144.000000	32.917963
1142.000000	32.538236
1140.000000	32.223659
1138.000000	31.908867
1136.000000	31.550633
1134.000000	31.159354
1132.000000	30.742062
1130.000000	30.315673
1128.000000	29.894579
1126.000000	29.474419
1124.000000	29.043985
1122.000000	28.606891
1120.000000	28.158968
1118.000000	27.701273
1116.000000	27.235118
1114.000000	26.767566
1112.000000	26.296571
1110.000000	25.833423
1108.000000	25.380144
1106.000000	24.944895
1104.000000	24.529310
1102.000000	24.120504
1100.000000	23.707349
1098.000000	23.300299
1096.000000	22.903555
1094.000000	22.519487
1092.000000	22.153254
1090.000000	21.803175
1088.000000	21.460868
1086.000000	21.122876
1084.000000	20.773738
1082.000000	20.415767
1080.000000	20.077994
1078.000000	19.774220
1076.000000	19.496303
1074.000000	19.262105
1072.000000	19.046024
1070.000000	18.824686
1068.000000	18.598601
1066.000000	18.368381
1064.000000	18.131422
1062.000000	17.894264
1060.000000	17.645716
1058.000000	17.358559
1056.000000	16.969667
1054.000000	16.458811
1052.000000	15.952963
1050.000000	15.653025
1048.000000	15.620562
1046.000000	15.704191
1044.000000	15.705502
1042.000000	15.586621
1040.000000	15.397837
1038.000000	15.184883
1036.000000	14.956840
1034.000000	14.717336
1032.000000	14.470438
1030.000000	14.217060
1028.000000	13.952081
1026.000000	13.681254
1024.000000	13.410194
1022.000000	13.142568
1020.000000	12.888284
1018.000000	12.655878
1016.000000	12.439837
1014.000000	12.248446
1012.000000	12.079176
1010.000000	11.918251
1008.000000	11.753350
1006.000000	11.576541
1004.000000	11.380533
1002.000000	11.170037
1000.000000	10.941474
