PE IR       SUBTECH     SPECTRUM    ASCII       PEDS        4.00        
   -1
TE109A_082_160K_BG.ASC
20/04/21
21:38:57.00
20/04/21
21:38:57.00
Administrator
TE109A, Tuesday, April 21 2020, 082.
1000.000000
#HDR
-1
-1
#GR
cm-1
EGY
1.0
0.0
6000.000000
-2.000000
2501
8
105.414653
10.950259
#DATA
6000.000000	16.542867
5998.000000	16.573282
5996.000000	16.605306
5994.000000	16.637999
5992.000000	16.671047
5990.000000	16.703358
5988.000000	16.736446
5986.000000	16.770654
5984.000000	16.803394
5982.000000	16.835751
5980.000000	16.869218
5978.000000	16.905232
5976.000000	16.939640
5974.000000	16.971076
5972.000000	17.002143
5970.000000	17.036485
5968.000000	17.072504
5966.000000	17.107232
5964.000000	17.141357
5962.000000	17.175608
5960.000000	17.210096
5958.000000	17.245058
5956.000000	17.279592
5954.000000	17.313797
5952.000000	17.347692
5950.000000	17.381818
5948.000000	17.416396
5946.000000	17.450548
5944.000000	17.483959
5942.000000	17.517526
5940.000000	17.550464
5938.000000	17.582795
5936.000000	17.614221
5934.000000	17.648550
5932.000000	17.684141
5930.000000	17.720108
5928.000000	17.754402
5926.000000	17.789120
5924.000000	17.824834
5922.000000	17.860149
5920.000000	17.894113
5918.000000	17.928940
5916.000000	17.965606
5914.000000	18.003178
5912.000000	18.040464
5910.000000	18.076332
5908.000000	18.111144
5906.000000	18.147081
5904.000000	18.183740
5902.000000	18.220779
5900.000000	18.258757
5898.000000	18.296158
5896.000000	18.334012
5894.000000	18.370074
5892.000000	18.405642
5890.000000	18.442722
5888.000000	18.479607
5886.000000	18.515129
5884.000000	18.548900
5882.000000	18.584336
5880.000000	18.621216
5878.000000	18.657843
5876.000000	18.693476
5874.000000	18.729641
5872.000000	18.767554
5870.000000	18.803715
5868.000000	18.839874
5866.000000	18.877194
5864.000000	18.915321
5862.000000	18.951798
5860.000000	18.987072
5858.000000	19.026050
5856.000000	19.065797
5854.000000	19.104717
5852.000000	19.142579
5850.000000	19.182151
5848.000000	19.222771
5846.000000	19.262695
5844.000000	19.301933
5842.000000	19.342104
5840.000000	19.382908
5838.000000	19.424621
5836.000000	19.466735
5834.000000	19.508558
5832.000000	19.549510
5830.000000	19.590424
5828.000000	19.630817
5826.000000	19.672588
5824.000000	19.713849
5822.000000	19.755164
5820.000000	19.796053
5818.000000	19.836912
5816.000000	19.878331
5814.000000	19.919677
5812.000000	19.961024
5810.000000	20.001191
5808.000000	20.040868
5806.000000	20.079987
5804.000000	20.119812
5802.000000	20.161232
5800.000000	20.203622
5798.000000	20.245696
5796.000000	20.285740
5794.000000	20.325211
5792.000000	20.365002
5790.000000	20.406747
5788.000000	20.448919
5786.000000	20.491488
5784.000000	20.532548
5782.000000	20.573604
5780.000000	20.615516
5778.000000	20.658180
5776.000000	20.699631
5774.000000	20.740599
5772.000000	20.782032
5770.000000	20.824649
5768.000000	20.866377
5766.000000	20.907517
5764.000000	20.949582
5762.000000	20.992482
5760.000000	21.035612
5758.000000	21.079506
5756.000000	21.121973
5754.000000	21.162715
5752.000000	21.202091
5750.000000	21.243318
5748.000000	21.285324
5746.000000	21.326581
5744.000000	21.367848
5742.000000	21.409793
5740.000000	21.452064
5738.000000	21.493110
5736.000000	21.532789
5734.000000	21.572314
5732.000000	21.611991
5730.000000	21.652900
5728.000000	21.695065
5726.000000	21.736138
5724.000000	21.777331
5722.000000	21.820299
5720.000000	21.863628
5718.000000	21.906276
5716.000000	21.947622
5714.000000	21.989680
5712.000000	22.032945
5710.000000	22.078453
5708.000000	22.125602
5706.000000	22.172738
5704.000000	22.217052
5702.000000	22.258883
5700.000000	22.301468
5698.000000	22.346306
5696.000000	22.390360
5694.000000	22.433684
5692.000000	22.476744
5690.000000	22.522696
5688.000000	22.570452
5686.000000	22.618344
5684.000000	22.665448
5682.000000	22.711904
5680.000000	22.755727
5678.000000	22.798898
5676.000000	22.842777
5674.000000	22.889316
5672.000000	22.936581
5670.000000	22.981532
5668.000000	23.025386
5666.000000	23.070090
5664.000000	23.116116
5662.000000	23.162405
5660.000000	23.208705
5658.000000	23.254931
5656.000000	23.299347
5654.000000	23.343667
5652.000000	23.389863
5650.000000	23.437370
5648.000000	23.482740
5646.000000	23.527626
5644.000000	23.573338
5642.000000	23.620375
5640.000000	23.664673
5638.000000	23.708471
5636.000000	23.752634
5634.000000	23.798522
5632.000000	23.844499
5630.000000	23.889934
5628.000000	23.935148
5626.000000	23.980576
5624.000000	24.026007
5622.000000	24.072780
5620.000000	24.119545
5618.000000	24.165958
5616.000000	24.210632
5614.000000	24.254901
5612.000000	24.299535
5610.000000	24.345173
5608.000000	24.391735
5606.000000	24.439008
5604.000000	24.485681
5602.000000	24.531695
5600.000000	24.577616
5598.000000	24.623890
5596.000000	24.670444
5594.000000	24.716320
5592.000000	24.762056
5590.000000	24.809628
5588.000000	24.857011
5586.000000	24.904929
5584.000000	24.950923
5582.000000	24.997054
5580.000000	25.043318
5578.000000	25.090554
5576.000000	25.137987
5574.000000	25.185345
5572.000000	25.234117
5570.000000	25.284305
5568.000000	25.332899
5566.000000	25.379158
5564.000000	25.424602
5562.000000	25.472159
5560.000000	25.520724
5558.000000	25.569910
5556.000000	25.618245
5554.000000	25.666453
5552.000000	25.713885
5550.000000	25.760221
5548.000000	25.806994
5546.000000	25.854962
5544.000000	25.903525
5542.000000	25.950337
5540.000000	25.995814
5538.000000	26.043312
5536.000000	26.092639
5534.000000	26.142644
5532.000000	26.191530
5530.000000	26.239428
5528.000000	26.285550
5526.000000	26.330874
5524.000000	26.377839
5522.000000	26.426137
5520.000000	26.472951
5518.000000	26.519084
5516.000000	26.567031
5514.000000	26.617192
5512.000000	26.665128
5510.000000	26.710980
5508.000000	26.756355
5506.000000	26.804575
5504.000000	26.854256
5502.000000	26.904092
5500.000000	26.953078
5498.000000	27.000459
5496.000000	27.044373
5494.000000	27.087821
5492.000000	27.134099
5490.000000	27.185031
5488.000000	27.236275
5486.000000	27.287151
5484.000000	27.339596
5482.000000	27.392985
5480.000000	27.441466
5478.000000	27.483309
5476.000000	27.528301
5474.000000	27.580281
5472.000000	27.634231
5470.000000	27.683550
5468.000000	27.729462
5466.000000	27.777242
5464.000000	27.824883
5462.000000	27.873758
5460.000000	27.923460
5458.000000	27.975972
5456.000000	28.028893
5454.000000	28.079260
5452.000000	28.125361
5450.000000	28.169283
5448.000000	28.213396
5446.000000	28.259475
5444.000000	28.306388
5442.000000	28.357905
5440.000000	28.410964
5438.000000	28.461443
5436.000000	28.508924
5434.000000	28.556040
5432.000000	28.603350
5430.000000	28.651044
5428.000000	28.701831
5426.000000	28.758766
5424.000000	28.816223
5422.000000	28.869263
5420.000000	28.918008
5418.000000	28.959493
5416.000000	28.996815
5414.000000	29.036091
5412.000000	29.084562
5410.000000	29.142698
5408.000000	29.202404
5406.000000	29.258972
5404.000000	29.312115
5402.000000	29.363661
5400.000000	29.411953
5398.000000	29.452330
5396.000000	29.490193
5394.000000	29.537204
5392.000000	29.595007
5390.000000	29.653165
5388.000000	29.701776
5386.000000	29.748885
5384.000000	29.802009
5382.000000	29.856950
5380.000000	29.903546
5378.000000	29.947023
5376.000000	29.996910
5374.000000	30.056618
5372.000000	30.117045
5370.000000	30.172613
5368.000000	30.221890
5366.000000	30.269811
5364.000000	30.320109
5362.000000	30.372263
5360.000000	30.423166
5358.000000	30.469434
5356.000000	30.511005
5354.000000	30.555902
5352.000000	30.607565
5350.000000	30.660687
5348.000000	30.704963
5346.000000	30.747855
5344.000000	30.798060
5342.000000	30.849144
5340.000000	30.896240
5338.000000	30.945798
5336.000000	31.004996
5334.000000	31.067355
5332.000000	31.121519
5330.000000	31.168542
5328.000000	31.216956
5326.000000	31.271454
5324.000000	31.327932
5322.000000	31.381701
5320.000000	31.432862
5318.000000	31.484249
5316.000000	31.535172
5314.000000	31.587102
5312.000000	31.636220
5310.000000	31.682272
5308.000000	31.729110
5306.000000	31.780694
5304.000000	31.834512
5302.000000	31.887217
5300.000000	31.938708
5298.000000	31.990902
5296.000000	32.043429
5294.000000	32.092590
5292.000000	32.138678
5290.000000	32.187596
5288.000000	32.242268
5286.000000	32.298699
5284.000000	32.352159
5282.000000	32.404657
5280.000000	32.457961
5278.000000	32.512453
5276.000000	32.567658
5274.000000	32.620425
5272.000000	32.668951
5270.000000	32.715387
5268.000000	32.759968
5266.000000	32.804686
5264.000000	32.854435
5262.000000	32.913551
5260.000000	32.974940
5258.000000	33.027992
5256.000000	33.076428
5254.000000	33.128261
5252.000000	33.180225
5250.000000	33.227243
5248.000000	33.272046
5246.000000	33.324226
5244.000000	33.384707
5242.000000	33.446838
5240.000000	33.503963
5238.000000	33.554689
5236.000000	33.603033
5234.000000	33.652891
5232.000000	33.704763
5230.000000	33.755025
5228.000000	33.801899
5226.000000	33.849937
5224.000000	33.903437
5222.000000	33.960295
5220.000000	34.016136
5218.000000	34.072131
5216.000000	34.127159
5214.000000	34.178829
5212.000000	34.225605
5210.000000	34.268362
5208.000000	34.312962
5206.000000	34.367403
5204.000000	34.430630
5202.000000	34.491528
5200.000000	34.543975
5198.000000	34.595604
5196.000000	34.650737
5194.000000	34.707511
5192.000000	34.762378
5190.000000	34.815637
5188.000000	34.868084
5186.000000	34.920928
5184.000000	34.974817
5182.000000	35.030090
5180.000000	35.086729
5178.000000	35.144751
5176.000000	35.200825
5174.000000	35.253872
5172.000000	35.306343
5170.000000	35.360195
5168.000000	35.414392
5166.000000	35.468183
5164.000000	35.522456
5162.000000	35.577128
5160.000000	35.632403
5158.000000	35.687699
5156.000000	35.742093
5154.000000	35.796134
5152.000000	35.850887
5150.000000	35.906221
5148.000000	35.961464
5146.000000	36.016231
5144.000000	36.069829
5142.000000	36.123388
5140.000000	36.176808
5138.000000	36.230820
5136.000000	36.284737
5134.000000	36.339771
5132.000000	36.394301
5130.000000	36.447687
5128.000000	36.500863
5126.000000	36.554789
5124.000000	36.608986
5122.000000	36.662299
5120.000000	36.715574
5118.000000	36.770763
5116.000000	36.826995
5114.000000	36.883031
5112.000000	36.937565
5110.000000	36.991662
5108.000000	37.046298
5106.000000	37.101413
5104.000000	37.156358
5102.000000	37.212722
5100.000000	37.269864
5098.000000	37.326752
5096.000000	37.381707
5094.000000	37.436698
5092.000000	37.491620
5090.000000	37.547548
5088.000000	37.604822
5086.000000	37.662919
5084.000000	37.719692
5082.000000	37.775809
5080.000000	37.832062
5078.000000	37.889296
5076.000000	37.946366
5074.000000	38.003626
5072.000000	38.059813
5070.000000	38.114617
5068.000000	38.170541
5066.000000	38.228025
5064.000000	38.284823
5062.000000	38.340617
5060.000000	38.395599
5058.000000	38.451434
5056.000000	38.507376
5054.000000	38.563800
5052.000000	38.620089
5050.000000	38.677465
5048.000000	38.734793
5046.000000	38.790295
5044.000000	38.845915
5042.000000	38.903496
5040.000000	38.960015
5038.000000	39.014514
5036.000000	39.069783
5034.000000	39.126942
5032.000000	39.183463
5030.000000	39.238632
5028.000000	39.292854
5026.000000	39.347615
5024.000000	39.403975
5022.000000	39.462134
5020.000000	39.518898
5018.000000	39.573675
5016.000000	39.627741
5014.000000	39.684143
5012.000000	39.742119
5010.000000	39.799900
5008.000000	39.856925
5006.000000	39.915297
5004.000000	39.972125
5002.000000	40.028664
5000.000000	40.086663
4998.000000	40.146164
4996.000000	40.203458
4994.000000	40.259562
4992.000000	40.317653
4990.000000	40.376814
4988.000000	40.434118
4986.000000	40.491270
4984.000000	40.550328
4982.000000	40.610714
4980.000000	40.669191
4978.000000	40.727060
4976.000000	40.784758
4974.000000	40.842605
4972.000000	40.900312
4970.000000	40.958296
4968.000000	41.016090
4966.000000	41.074080
4964.000000	41.130836
4962.000000	41.187084
4960.000000	41.244466
4958.000000	41.302501
4956.000000	41.359288
4954.000000	41.415874
4952.000000	41.473100
4950.000000	41.529877
4948.000000	41.586045
4946.000000	41.643796
4944.000000	41.701546
4942.000000	41.757706
4940.000000	41.812841
4938.000000	41.869261
4936.000000	41.927066
4934.000000	41.984801
4932.000000	42.041455
4930.000000	42.098516
4928.000000	42.156683
4926.000000	42.215071
4924.000000	42.271694
4922.000000	42.327668
4920.000000	42.383645
4918.000000	42.439932
4916.000000	42.495857
4914.000000	42.553082
4912.000000	42.610574
4910.000000	42.668308
4908.000000	42.726455
4906.000000	42.786364
4904.000000	42.846041
4902.000000	42.906043
4900.000000	42.965988
4898.000000	43.025021
4896.000000	43.083010
4894.000000	43.142453
4892.000000	43.201576
4890.000000	43.260997
4888.000000	43.321199
4886.000000	43.381958
4884.000000	43.441236
4882.000000	43.500090
4880.000000	43.558029
4878.000000	43.616137
4876.000000	43.674682
4874.000000	43.733991
4872.000000	43.794592
4870.000000	43.855472
4868.000000	43.912571
4866.000000	43.967317
4864.000000	44.023429
4862.000000	44.081501
4860.000000	44.140676
4858.000000	44.201050
4856.000000	44.260419
4854.000000	44.318478
4852.000000	44.375584
4850.000000	44.433070
4848.000000	44.490525
4846.000000	44.548109
4844.000000	44.605111
4842.000000	44.663891
4840.000000	44.723701
4838.000000	44.782476
4836.000000	44.838962
4834.000000	44.896233
4832.000000	44.953307
4830.000000	45.010314
4828.000000	45.066285
4826.000000	45.123994
4824.000000	45.182920
4822.000000	45.241547
4820.000000	45.298976
4818.000000	45.358007
4816.000000	45.417939
4814.000000	45.476638
4812.000000	45.535810
4810.000000	45.596844
4808.000000	45.656757
4806.000000	45.715248
4804.000000	45.774742
4802.000000	45.835432
4800.000000	45.893837
4798.000000	45.952260
4796.000000	46.012914
4794.000000	46.075956
4792.000000	46.137605
4790.000000	46.197993
4788.000000	46.257962
4786.000000	46.318800
4784.000000	46.379246
4782.000000	46.438485
4780.000000	46.496529
4778.000000	46.555657
4776.000000	46.615838
4774.000000	46.676528
4772.000000	46.736700
4770.000000	46.797079
4768.000000	46.856648
4766.000000	46.916417
4764.000000	46.975307
4762.000000	47.032642
4760.000000	47.089706
4758.000000	47.148701
4756.000000	47.209280
4754.000000	47.269271
4752.000000	47.327068
4750.000000	47.384895
4748.000000	47.444877
4746.000000	47.505090
4744.000000	47.562295
4742.000000	47.618365
4740.000000	47.674648
4738.000000	47.731843
4736.000000	47.789591
4734.000000	47.848395
4732.000000	47.907393
4730.000000	47.968435
4728.000000	48.029556
4726.000000	48.088824
4724.000000	48.146460
4722.000000	48.204746
4720.000000	48.263296
4718.000000	48.323082
4716.000000	48.384572
4714.000000	48.447441
4712.000000	48.509261
4710.000000	48.570096
4708.000000	48.632436
4706.000000	48.696824
4704.000000	48.760949
4702.000000	48.823731
4700.000000	48.885466
4698.000000	48.947214
4696.000000	49.009528
4694.000000	49.071727
4692.000000	49.132994
4690.000000	49.194683
4688.000000	49.256468
4686.000000	49.318268
4684.000000	49.379660
4682.000000	49.442019
4680.000000	49.504493
4678.000000	49.566020
4676.000000	49.625152
4674.000000	49.684992
4672.000000	49.746224
4670.000000	49.807699
4668.000000	49.868061
4666.000000	49.929154
4664.000000	49.990689
4662.000000	50.053234
4660.000000	50.115989
4658.000000	50.176963
4656.000000	50.236821
4654.000000	50.297360
4652.000000	50.358050
4650.000000	50.419575
4648.000000	50.480779
4646.000000	50.541422
4644.000000	50.602118
4642.000000	50.664121
4640.000000	50.724383
4638.000000	50.783506
4636.000000	50.843374
4634.000000	50.905371
4632.000000	50.967196
4630.000000	51.027271
4628.000000	51.087607
4626.000000	51.149639
4624.000000	51.210896
4622.000000	51.271138
4620.000000	51.332937
4618.000000	51.397630
4616.000000	51.461978
4614.000000	51.524880
4612.000000	51.587151
4610.000000	51.650570
4608.000000	51.714960
4606.000000	51.780508
4604.000000	51.846321
4602.000000	51.911648
4600.000000	51.975576
4598.000000	52.039661
4596.000000	52.104370
4594.000000	52.169467
4592.000000	52.233511
4590.000000	52.297961
4588.000000	52.362675
4586.000000	52.427718
4584.000000	52.491679
4582.000000	52.555592
4580.000000	52.620310
4578.000000	52.685617
4576.000000	52.750199
4574.000000	52.814331
4572.000000	52.877847
4570.000000	52.940396
4568.000000	53.003028
4566.000000	53.065893
4564.000000	53.128429
4562.000000	53.191458
4560.000000	53.255427
4558.000000	53.319134
4556.000000	53.381047
4554.000000	53.443650
4552.000000	53.507086
4550.000000	53.569854
4548.000000	53.631949
4546.000000	53.694499
4544.000000	53.755593
4542.000000	53.816953
4540.000000	53.879689
4538.000000	53.943311
4536.000000	54.006443
4534.000000	54.069317
4532.000000	54.133258
4530.000000	54.198284
4528.000000	54.260472
4526.000000	54.322454
4524.000000	54.387470
4522.000000	54.452927
4520.000000	54.515770
4518.000000	54.578904
4516.000000	54.642764
4514.000000	54.706831
4512.000000	54.770722
4510.000000	54.836226
4508.000000	54.902131
4506.000000	54.967982
4504.000000	55.032987
4502.000000	55.098431
4500.000000	55.163943
4498.000000	55.229700
4496.000000	55.295242
4494.000000	55.361157
4492.000000	55.426602
4490.000000	55.492205
4488.000000	55.557588
4486.000000	55.622533
4484.000000	55.687505
4482.000000	55.752559
4480.000000	55.815796
4478.000000	55.879530
4476.000000	55.945003
4474.000000	56.010039
4472.000000	56.071953
4470.000000	56.132949
4468.000000	56.194322
4466.000000	56.258602
4464.000000	56.323701
4462.000000	56.386049
4460.000000	56.446165
4458.000000	56.508118
4456.000000	56.570713
4454.000000	56.632737
4452.000000	56.694247
4450.000000	56.757044
4448.000000	56.819264
4446.000000	56.879386
4444.000000	56.939423
4442.000000	57.002602
4440.000000	57.067083
4438.000000	57.130036
4436.000000	57.191638
4434.000000	57.254852
4432.000000	57.319208
4430.000000	57.382536
4428.000000	57.445455
4426.000000	57.509828
4424.000000	57.573328
4422.000000	57.634160
4420.000000	57.695885
4418.000000	57.760766
4416.000000	57.825710
4414.000000	57.890111
4412.000000	57.954594
4410.000000	58.019349
4408.000000	58.083612
4406.000000	58.148140
4404.000000	58.211382
4402.000000	58.274744
4400.000000	58.340555
4398.000000	58.408174
4396.000000	58.472494
4394.000000	58.534749
4392.000000	58.598240
4390.000000	58.663946
4388.000000	58.727869
4386.000000	58.788726
4384.000000	58.848632
4382.000000	58.909584
4380.000000	58.970494
4378.000000	59.031251
4376.000000	59.090867
4374.000000	59.149700
4372.000000	59.209192
4370.000000	59.269882
4368.000000	59.330058
4366.000000	59.390278
4364.000000	59.449991
4362.000000	59.509670
4360.000000	59.570615
4358.000000	59.633178
4356.000000	59.695506
4354.000000	59.759172
4352.000000	59.823627
4350.000000	59.887380
4348.000000	59.949925
4346.000000	60.012124
4344.000000	60.073304
4342.000000	60.135040
4340.000000	60.197898
4338.000000	60.262606
4336.000000	60.328325
4334.000000	60.393106
4332.000000	60.455159
4330.000000	60.518197
4328.000000	60.583863
4326.000000	60.649774
4324.000000	60.715524
4322.000000	60.783098
4320.000000	60.850533
4318.000000	60.917786
4316.000000	60.984735
4314.000000	61.051623
4312.000000	61.119186
4310.000000	61.186953
4308.000000	61.253407
4306.000000	61.320802
4304.000000	61.389057
4302.000000	61.456027
4300.000000	61.520309
4298.000000	61.584670
4296.000000	61.649677
4294.000000	61.714271
4292.000000	61.778569
4290.000000	61.843411
4288.000000	61.906780
4286.000000	61.968489
4284.000000	62.029234
4282.000000	62.090352
4280.000000	62.151032
4278.000000	62.210054
4276.000000	62.268188
4274.000000	62.327417
4272.000000	62.387033
4270.000000	62.447613
4268.000000	62.508063
4266.000000	62.568134
4264.000000	62.628861
4262.000000	62.690422
4260.000000	62.752052
4258.000000	62.815558
4256.000000	62.879206
4254.000000	62.942659
4252.000000	63.005565
4250.000000	63.068336
4248.000000	63.131301
4246.000000	63.194615
4244.000000	63.258708
4242.000000	63.324470
4240.000000	63.389389
4238.000000	63.453900
4236.000000	63.518709
4234.000000	63.583692
4232.000000	63.648150
4230.000000	63.711873
4228.000000	63.774956
4226.000000	63.839888
4224.000000	63.905871
4222.000000	63.970102
4220.000000	64.032650
4218.000000	64.096856
4216.000000	64.162396
4214.000000	64.228230
4212.000000	64.293381
4210.000000	64.359178
4208.000000	64.426206
4206.000000	64.493630
4204.000000	64.559554
4202.000000	64.625906
4200.000000	64.693970
4198.000000	64.763074
4196.000000	64.832189
4194.000000	64.900857
4192.000000	64.967536
4190.000000	65.034442
4188.000000	65.102786
4186.000000	65.172200
4184.000000	65.239849
4182.000000	65.305935
4180.000000	65.372500
4178.000000	65.438873
4176.000000	65.502242
4174.000000	65.565125
4172.000000	65.629462
4170.000000	65.694868
4168.000000	65.759059
4166.000000	65.822553
4164.000000	65.886478
4162.000000	65.951431
4160.000000	66.014903
4158.000000	66.077574
4156.000000	66.141650
4154.000000	66.208052
4152.000000	66.274166
4150.000000	66.338557
4148.000000	66.401749
4146.000000	66.466162
4144.000000	66.532008
4142.000000	66.598310
4140.000000	66.663238
4138.000000	66.728928
4136.000000	66.795245
4134.000000	66.860696
4132.000000	66.925023
4130.000000	66.990623
4128.000000	67.058497
4126.000000	67.127777
4124.000000	67.195046
4122.000000	67.260798
4120.000000	67.326483
4118.000000	67.393032
4116.000000	67.458830
4114.000000	67.523738
4112.000000	67.589143
4110.000000	67.654650
4108.000000	67.717686
4106.000000	67.782433
4104.000000	67.848800
4102.000000	67.912548
4100.000000	67.975435
4098.000000	68.040075
4096.000000	68.103466
4094.000000	68.167268
4092.000000	68.233496
4090.000000	68.301076
4088.000000	68.369450
4086.000000	68.441017
4084.000000	68.513977
4082.000000	68.584060
4080.000000	68.650266
4078.000000	68.716294
4076.000000	68.781770
4074.000000	68.845786
4072.000000	68.910533
4070.000000	68.977045
4068.000000	69.042474
4066.000000	69.107071
4064.000000	69.170603
4062.000000	69.233497
4060.000000	69.297106
4058.000000	69.362913
4056.000000	69.430623
4054.000000	69.498743
4052.000000	69.563195
4050.000000	69.624263
4048.000000	69.685392
4046.000000	69.748871
4044.000000	69.813862
4042.000000	69.881026
4040.000000	69.949925
4038.000000	70.019097
4036.000000	70.085576
4034.000000	70.151778
4032.000000	70.219816
4030.000000	70.287303
4028.000000	70.352917
4026.000000	70.420236
4024.000000	70.488585
4022.000000	70.556073
4020.000000	70.624072
4018.000000	70.693213
4016.000000	70.761840
4014.000000	70.830875
4012.000000	70.898935
4010.000000	70.967861
4008.000000	71.039515
4006.000000	71.111437
4004.000000	71.180285
4002.000000	71.246191
4000.000000	71.310603
3998.000000	71.374551
3996.000000	71.437758
3994.000000	71.502299
3992.000000	71.567757
3990.000000	71.635162
3988.000000	71.703104
3986.000000	71.767304
3984.000000	71.829728
3982.000000	71.894603
3980.000000	71.957175
3978.000000	72.015179
3976.000000	72.073663
3974.000000	72.136296
3972.000000	72.200558
3970.000000	72.264938
3968.000000	72.328173
3966.000000	72.389557
3964.000000	72.447247
3962.000000	72.504415
3960.000000	72.565865
3958.000000	72.630660
3956.000000	72.693946
3954.000000	72.750399
3952.000000	72.795287
3950.000000	72.840294
3948.000000	72.901666
3946.000000	72.965423
3944.000000	73.018068
3942.000000	73.088203
3940.000000	73.177825
3938.000000	73.255147
3936.000000	73.302315
3934.000000	73.326534
3932.000000	73.373273
3930.000000	73.463361
3928.000000	73.545722
3926.000000	73.600156
3924.000000	73.661206
3922.000000	73.720224
3920.000000	73.749343
3918.000000	73.792077
3916.000000	73.899329
3914.000000	74.031718
3912.000000	74.129510
3910.000000	74.186841
3908.000000	74.177036
3906.000000	74.085666
3904.000000	74.013235
3902.000000	74.050808
3900.000000	74.194627
3898.000000	74.403448
3896.000000	74.561835
3894.000000	74.571759
3892.000000	74.549315
3890.000000	74.617019
3888.000000	74.643010
3886.000000	74.637721
3884.000000	74.742645
3882.000000	74.856048
3880.000000	74.955244
3878.000000	75.077684
3876.000000	75.126385
3874.000000	75.087513
3872.000000	74.986333
3870.000000	74.968013
3868.000000	75.110050
3866.000000	75.230394
3864.000000	75.323296
3862.000000	75.478717
3860.000000	75.611401
3858.000000	75.496454
3856.000000	75.012325
3854.000000	74.682681
3852.000000	75.030025
3850.000000	75.658323
3848.000000	76.017298
3846.000000	76.091847
3844.000000	76.064458
3842.000000	75.983934
3840.000000	75.801762
3838.000000	75.726634
3836.000000	75.943319
3834.000000	76.221288
3832.000000	76.399296
3830.000000	76.538371
3828.000000	76.637438
3826.000000	76.678532
3824.000000	76.595057
3822.000000	76.479891
3820.000000	76.512687
3818.000000	76.531313
3816.000000	76.592639
3814.000000	76.901752
3812.000000	77.178946
3810.000000	77.169448
3808.000000	77.044083
3806.000000	77.057329
3804.000000	77.038761
3802.000000	76.963603
3800.000000	77.143553
3798.000000	77.425380
3796.000000	77.603813
3794.000000	77.751716
3792.000000	77.865158
3790.000000	77.932389
3788.000000	77.972663
3786.000000	78.005242
3784.000000	78.049618
3782.000000	78.073609
3780.000000	78.092763
3778.000000	78.184985
3776.000000	78.305915
3774.000000	78.353674
3772.000000	78.308773
3770.000000	78.287845
3768.000000	78.361688
3766.000000	78.468006
3764.000000	78.566916
3762.000000	78.601822
3760.000000	78.595362
3758.000000	78.643754
3756.000000	78.621495
3754.000000	78.343390
3752.000000	78.037580
3750.000000	78.077217
3748.000000	78.240195
3746.000000	78.150748
3744.000000	78.259915
3742.000000	78.768659
3740.000000	79.051690
3738.000000	78.950588
3736.000000	78.851568
3734.000000	78.937989
3732.000000	79.160060
3730.000000	79.414562
3728.000000	79.544629
3726.000000	79.588811
3724.000000	79.655351
3722.000000	79.747321
3720.000000	79.858736
3718.000000	79.959306
3716.000000	79.954181
3714.000000	79.790082
3712.000000	79.686805
3710.000000	79.840980
3708.000000	80.108460
3706.000000	80.280311
3704.000000	80.306085
3702.000000	80.314406
3700.000000	80.414936
3698.000000	80.530312
3696.000000	80.582506
3694.000000	80.538598
3692.000000	80.347699
3690.000000	80.124204
3688.000000	80.207364
3686.000000	80.579543
3684.000000	80.841293
3682.000000	80.887606
3680.000000	80.781441
3678.000000	80.493938
3676.000000	80.291462
3674.000000	80.399181
3672.000000	80.483511
3670.000000	80.567857
3668.000000	80.875750
3666.000000	81.165168
3664.000000	81.285456
3662.000000	81.320353
3660.000000	81.284495
3658.000000	81.166010
3656.000000	81.131118
3654.000000	81.157687
3652.000000	80.971325
3650.000000	80.747428
3648.000000	80.864176
3646.000000	81.206966
3644.000000	81.452915
3642.000000	81.546204
3640.000000	81.581392
3638.000000	81.595870
3636.000000	81.582879
3634.000000	81.527301
3632.000000	81.323011
3630.000000	81.056072
3628.000000	81.130157
3626.000000	81.465375
3624.000000	81.633922
3622.000000	81.554297
3620.000000	81.431153
3618.000000	81.456670
3616.000000	81.534649
3614.000000	81.529526
3612.000000	81.484588
3610.000000	81.455781
3608.000000	81.518673
3606.000000	81.654675
3604.000000	81.730546
3602.000000	81.727008
3600.000000	81.710613
3598.000000	81.694236
3596.000000	81.671212
3594.000000	81.675900
3592.000000	81.668318
3590.000000	81.568448
3588.000000	81.487283
3586.000000	81.558520
3584.000000	81.679377
3582.000000	81.731235
3580.000000	81.733634
3578.000000	81.728784
3576.000000	81.725457
3574.000000	81.723378
3572.000000	81.691075
3570.000000	81.583030
3568.000000	81.474866
3566.000000	81.497524
3564.000000	81.595128
3562.000000	81.648991
3560.000000	81.662563
3558.000000	81.668947
3556.000000	81.660797
3554.000000	81.635779
3552.000000	81.619021
3550.000000	81.606498
3548.000000	81.568087
3546.000000	81.536963
3544.000000	81.551446
3542.000000	81.580396
3540.000000	81.583315
3538.000000	81.559684
3536.000000	81.538286
3534.000000	81.526095
3532.000000	81.495609
3530.000000	81.444512
3528.000000	81.397340
3526.000000	81.357992
3524.000000	81.321121
3522.000000	81.297847
3520.000000	81.278420
3518.000000	81.249881
3516.000000	81.216626
3514.000000	81.177103
3512.000000	81.126864
3510.000000	81.075871
3508.000000	81.033027
3506.000000	80.978345
3504.000000	80.908995
3502.000000	80.857744
3500.000000	80.822122
3498.000000	80.774344
3496.000000	80.717612
3494.000000	80.665949
3492.000000	80.615357
3490.000000	80.558640
3488.000000	80.505069
3486.000000	80.462131
3484.000000	80.419596
3482.000000	80.382888
3480.000000	80.365644
3478.000000	80.362047
3476.000000	80.360432
3474.000000	80.362003
3472.000000	80.369768
3470.000000	80.379923
3468.000000	80.397376
3466.000000	80.427949
3464.000000	80.462406
3462.000000	80.496385
3460.000000	80.535091
3458.000000	80.574995
3456.000000	80.609081
3454.000000	80.636499
3452.000000	80.656727
3450.000000	80.665310
3448.000000	80.672272
3446.000000	80.699728
3444.000000	80.745010
3442.000000	80.801529
3440.000000	80.874080
3438.000000	80.960923
3436.000000	81.063369
3434.000000	81.186711
3432.000000	81.325126
3430.000000	81.467240
3428.000000	81.607993
3426.000000	81.742802
3424.000000	81.865377
3422.000000	81.976523
3420.000000	82.086066
3418.000000	82.194894
3416.000000	82.292631
3414.000000	82.374487
3412.000000	82.444928
3410.000000	82.511078
3408.000000	82.572988
3406.000000	82.629898
3404.000000	82.684270
3402.000000	82.736167
3400.000000	82.794667
3398.000000	82.867793
3396.000000	82.946856
3394.000000	83.018078
3392.000000	83.084080
3390.000000	83.157935
3388.000000	83.232025
3386.000000	83.294961
3384.000000	83.351571
3382.000000	83.407870
3380.000000	83.462442
3378.000000	83.513597
3376.000000	83.562481
3374.000000	83.610728
3372.000000	83.652136
3370.000000	83.685260
3368.000000	83.725038
3366.000000	83.774750
3364.000000	83.823826
3362.000000	83.869604
3360.000000	83.913779
3358.000000	83.956532
3356.000000	83.997314
3354.000000	84.037715
3352.000000	84.077585
3350.000000	84.118226
3348.000000	84.161671
3346.000000	84.205332
3344.000000	84.247296
3342.000000	84.287500
3340.000000	84.323695
3338.000000	84.357976
3336.000000	84.397825
3334.000000	84.441088
3332.000000	84.482277
3330.000000	84.519954
3328.000000	84.555055
3326.000000	84.589973
3324.000000	84.627446
3322.000000	84.665862
3320.000000	84.701962
3318.000000	84.737904
3316.000000	84.774446
3314.000000	84.808123
3312.000000	84.839712
3310.000000	84.868636
3308.000000	84.895166
3306.000000	84.927606
3304.000000	84.968900
3302.000000	85.012093
3300.000000	85.051418
3298.000000	85.087851
3296.000000	85.121675
3294.000000	85.152581
3292.000000	85.186355
3290.000000	85.227296
3288.000000	85.269709
3286.000000	85.309200
3284.000000	85.346074
3282.000000	85.383847
3280.000000	85.422923
3278.000000	85.458905
3276.000000	85.492250
3274.000000	85.526456
3272.000000	85.564057
3270.000000	85.608199
3268.000000	85.654258
3266.000000	85.697131
3264.000000	85.740187
3262.000000	85.784125
3260.000000	85.828317
3258.000000	85.871913
3256.000000	85.915844
3254.000000	85.962889
3252.000000	86.010095
3250.000000	86.056302
3248.000000	86.102194
3246.000000	86.148700
3244.000000	86.201321
3242.000000	86.255579
3240.000000	86.304997
3238.000000	86.353183
3236.000000	86.401678
3234.000000	86.447322
3232.000000	86.496887
3230.000000	86.550075
3228.000000	86.600685
3226.000000	86.649537
3224.000000	86.698410
3222.000000	86.745064
3220.000000	86.789542
3218.000000	86.836190
3216.000000	86.884122
3214.000000	86.933281
3212.000000	86.984552
3210.000000	87.037448
3208.000000	87.095181
3206.000000	87.157785
3204.000000	87.223948
3202.000000	87.292909
3200.000000	87.361646
3198.000000	87.431098
3196.000000	87.504242
3194.000000	87.577961
3192.000000	87.649488
3190.000000	87.719393
3188.000000	87.789471
3186.000000	87.859156
3184.000000	87.929959
3182.000000	88.002353
3180.000000	88.071709
3178.000000	88.140037
3176.000000	88.213943
3174.000000	88.289568
3172.000000	88.361629
3170.000000	88.432502
3168.000000	88.505405
3166.000000	88.579498
3164.000000	88.654307
3162.000000	88.731673
3160.000000	88.810469
3158.000000	88.888589
3156.000000	88.965878
3154.000000	89.039433
3152.000000	89.113306
3150.000000	89.194190
3148.000000	89.274257
3146.000000	89.350514
3144.000000	89.425641
3142.000000	89.496921
3140.000000	89.566374
3138.000000	89.638729
3136.000000	89.710157
3134.000000	89.776426
3132.000000	89.842529
3130.000000	89.909467
3128.000000	89.974151
3126.000000	90.036298
3124.000000	90.095761
3122.000000	90.149669
3120.000000	90.199971
3118.000000	90.251123
3116.000000	90.306761
3114.000000	90.365013
3112.000000	90.419748
3110.000000	90.472153
3108.000000	90.526770
3106.000000	90.582480
3104.000000	90.639297
3102.000000	90.699294
3100.000000	90.763071
3098.000000	90.826506
3096.000000	90.888780
3094.000000	90.952744
3092.000000	91.016973
3090.000000	91.077817
3088.000000	91.135395
3086.000000	91.189000
3084.000000	91.238007
3082.000000	91.282536
3080.000000	91.323341
3078.000000	91.361968
3076.000000	91.397502
3074.000000	91.422568
3072.000000	91.437500
3070.000000	91.447168
3068.000000	91.455684
3066.000000	91.472859
3064.000000	91.507170
3062.000000	91.554333
3060.000000	91.607586
3058.000000	91.662870
3056.000000	91.720541
3054.000000	91.781358
3052.000000	91.841008
3050.000000	91.895798
3048.000000	91.943741
3046.000000	91.982831
3044.000000	92.013393
3042.000000	92.039045
3040.000000	92.063262
3038.000000	92.082475
3036.000000	92.092624
3034.000000	92.093879
3032.000000	92.082298
3030.000000	92.047919
3028.000000	91.979459
3026.000000	91.870248
3024.000000	91.738616
3022.000000	91.619771
3020.000000	91.552421
3018.000000	91.578362
3016.000000	91.721863
3014.000000	91.962534
3012.000000	92.249034
3010.000000	92.523447
3008.000000	92.746843
3006.000000	92.909095
3004.000000	93.022382
3002.000000	93.102189
3000.000000	93.157731
2998.000000	93.198005
2996.000000	93.228431
2994.000000	93.248739
2992.000000	93.260620
2990.000000	93.262303
2988.000000	93.246937
2986.000000	93.210212
2984.000000	93.150021
2982.000000	93.062207
2980.000000	92.940400
2978.000000	92.773661
2976.000000	92.547953
2974.000000	92.244140
2972.000000	91.847307
2970.000000	91.363089
2968.000000	90.838374
2966.000000	90.353987
2964.000000	89.996375
2962.000000	89.822608
2960.000000	89.833642
2958.000000	89.973769
2956.000000	90.165877
2954.000000	90.349652
2952.000000	90.491374
2950.000000	90.559925
2948.000000	90.523431
2946.000000	90.361116
2944.000000	90.066597
2942.000000	89.651952
2940.000000	89.155991
2938.000000	88.640580
2936.000000	88.166041
2934.000000	87.744981
2932.000000	87.345355
2930.000000	86.952559
2928.000000	86.618711
2926.000000	86.450831
2924.000000	86.558075
2922.000000	86.980519
2920.000000	87.659618
2918.000000	88.480548
2916.000000	89.337681
2914.000000	90.144318
2912.000000	90.838376
2910.000000	91.390605
2908.000000	91.819861
2906.000000	92.168994
2904.000000	92.470491
2902.000000	92.744235
2900.000000	93.000978
2898.000000	93.241636
2896.000000	93.467691
2894.000000	93.681894
2892.000000	93.885645
2890.000000	94.074300
2888.000000	94.238451
2886.000000	94.366757
2884.000000	94.453355
2882.000000	94.495239
2880.000000	94.492045
2878.000000	94.439411
2876.000000	94.329277
2874.000000	94.151956
2872.000000	93.895777
2870.000000	93.533920
2868.000000	93.046491
2866.000000	92.469289
2864.000000	91.923927
2862.000000	91.567688
2860.000000	91.490758
2858.000000	91.658624
2856.000000	91.961177
2854.000000	92.319034
2852.000000	92.731544
2850.000000	93.239706
2848.000000	93.847637
2846.000000	94.470570
2844.000000	95.013240
2842.000000	95.445970
2840.000000	95.785388
2838.000000	96.056612
2836.000000	96.277947
2834.000000	96.459374
2832.000000	96.613421
2830.000000	96.750036
2828.000000	96.872680
2826.000000	96.981930
2824.000000	97.083644
2822.000000	97.177120
2820.000000	97.262196
2818.000000	97.340326
2816.000000	97.410383
2814.000000	97.472250
2812.000000	97.530083
2810.000000	97.584338
2808.000000	97.636515
2806.000000	97.683952
2804.000000	97.727571
2802.000000	97.770344
2800.000000	97.813230
2798.000000	97.854241
2796.000000	97.895430
2794.000000	97.938457
2792.000000	97.985260
2790.000000	98.040415
2788.000000	98.109430
2786.000000	98.188183
2784.000000	98.272457
2782.000000	98.355462
2780.000000	98.430910
2778.000000	98.497320
2776.000000	98.557091
2774.000000	98.613958
2772.000000	98.669688
2770.000000	98.722190
2768.000000	98.773326
2766.000000	98.822245
2764.000000	98.869141
2762.000000	98.914144
2760.000000	98.960194
2758.000000	99.004646
2756.000000	99.046650
2754.000000	99.087310
2752.000000	99.127588
2750.000000	99.166550
2748.000000	99.205154
2746.000000	99.240478
2744.000000	99.274358
2742.000000	99.309034
2740.000000	99.343009
2738.000000	99.375063
2736.000000	99.409540
2734.000000	99.444708
2732.000000	99.478642
2730.000000	99.511190
2728.000000	99.545202
2726.000000	99.579056
2724.000000	99.609592
2722.000000	99.638226
2720.000000	99.670476
2718.000000	99.703188
2716.000000	99.732235
2714.000000	99.757512
2712.000000	99.781680
2710.000000	99.805325
2708.000000	99.830517
2706.000000	99.855788
2704.000000	99.885682
2702.000000	99.921323
2700.000000	99.962734
2698.000000	100.008710
2696.000000	100.056997
2694.000000	100.103386
2692.000000	100.147549
2690.000000	100.189158
2688.000000	100.230608
2686.000000	100.271046
2684.000000	100.310544
2682.000000	100.345907
2680.000000	100.378630
2678.000000	100.412794
2676.000000	100.448067
2674.000000	100.479465
2672.000000	100.510217
2670.000000	100.541031
2668.000000	100.569463
2666.000000	100.596715
2664.000000	100.626387
2662.000000	100.654850
2660.000000	100.684720
2658.000000	100.715882
2656.000000	100.747784
2654.000000	100.781681
2652.000000	100.820105
2650.000000	100.860694
2648.000000	100.901288
2646.000000	100.940084
2644.000000	100.977512
2642.000000	101.012933
2640.000000	101.047654
2638.000000	101.081680
2636.000000	101.116679
2634.000000	101.148896
2632.000000	101.178837
2630.000000	101.208886
2628.000000	101.239398
2626.000000	101.267621
2624.000000	101.294716
2622.000000	101.321233
2620.000000	101.348149
2618.000000	101.375647
2616.000000	101.401697
2614.000000	101.426172
2612.000000	101.451268
2610.000000	101.474105
2608.000000	101.494705
2606.000000	101.510542
2604.000000	101.524506
2602.000000	101.536924
2600.000000	101.547525
2598.000000	101.555429
2596.000000	101.566534
2594.000000	101.581845
2592.000000	101.603741
2590.000000	101.636422
2588.000000	101.679435
2586.000000	101.728860
2584.000000	101.786600
2582.000000	101.848159
2580.000000	101.909324
2578.000000	101.968020
2576.000000	102.021442
2574.000000	102.068864
2572.000000	102.112953
2570.000000	102.151709
2568.000000	102.187317
2566.000000	102.221551
2564.000000	102.256789
2562.000000	102.289262
2560.000000	102.317897
2558.000000	102.345013
2556.000000	102.371162
2554.000000	102.397410
2552.000000	102.426195
2550.000000	102.452858
2548.000000	102.477006
2546.000000	102.500568
2544.000000	102.525872
2542.000000	102.552245
2540.000000	102.579715
2538.000000	102.605531
2536.000000	102.632028
2534.000000	102.659896
2532.000000	102.689579
2530.000000	102.714767
2528.000000	102.737497
2526.000000	102.760288
2524.000000	102.784724
2522.000000	102.809247
2520.000000	102.834031
2518.000000	102.858199
2516.000000	102.882396
2514.000000	102.904362
2512.000000	102.924700
2510.000000	102.946968
2508.000000	102.970550
2506.000000	102.989720
2504.000000	103.009256
2502.000000	103.030825
2500.000000	103.054259
2498.000000	103.077467
2496.000000	103.104244
2494.000000	103.131907
2492.000000	103.158498
2490.000000	103.183322
2488.000000	103.209175
2486.000000	103.234752
2484.000000	103.260245
2482.000000	103.284652
2480.000000	103.308056
2478.000000	103.330916
2476.000000	103.355602
2474.000000	103.377521
2472.000000	103.397109
2470.000000	103.415916
2468.000000	103.435737
2466.000000	103.454166
2464.000000	103.470790
2462.000000	103.486072
2460.000000	103.502600
2458.000000	103.519446
2456.000000	103.535852
2454.000000	103.550959
2452.000000	103.566969
2450.000000	103.583229
2448.000000	103.600419
2446.000000	103.617085
2444.000000	103.634275
2442.000000	103.649641
2440.000000	103.664585
2438.000000	103.678808
2436.000000	103.692113
2434.000000	103.705129
2432.000000	103.718597
2430.000000	103.728604
2428.000000	103.738782
2426.000000	103.752610
2424.000000	103.770328
2422.000000	103.787922
2420.000000	103.801564
2418.000000	103.812060
2416.000000	103.825574
2414.000000	103.837576
2412.000000	103.848716
2410.000000	103.859637
2408.000000	103.871317
2406.000000	103.884655
2404.000000	103.900576
2402.000000	103.915663
2400.000000	103.929175
2398.000000	103.942819
2396.000000	103.962573
2394.000000	103.980655
2392.000000	103.995323
2390.000000	104.012850
2388.000000	104.029146
2386.000000	104.035886
2384.000000	104.032742
2382.000000	104.010585
2380.000000	103.962815
2378.000000	103.879623
2376.000000	103.760915
2374.000000	103.608441
2372.000000	103.429832
2370.000000	103.236460
2368.000000	103.052870
2366.000000	102.900799
2364.000000	102.799181
2362.000000	102.766038
2360.000000	102.811720
2358.000000	102.933077
2356.000000	103.124443
2354.000000	103.373120
2352.000000	103.650991
2350.000000	103.854023
2348.000000	103.846902
2346.000000	103.671160
2344.000000	103.481327
2342.000000	103.343198
2340.000000	103.263799
2338.000000	103.229525
2336.000000	103.230356
2334.000000	103.256345
2332.000000	103.306004
2330.000000	103.375477
2328.000000	103.459386
2326.000000	103.551670
2324.000000	103.650907
2322.000000	103.747740
2320.000000	103.840712
2318.000000	103.924539
2316.000000	103.998480
2314.000000	104.064240
2312.000000	104.123304
2310.000000	104.171881
2308.000000	104.212662
2306.000000	104.245188
2304.000000	104.274130
2302.000000	104.300220
2300.000000	104.322575
2298.000000	104.339075
2296.000000	104.354562
2294.000000	104.367717
2292.000000	104.380461
2290.000000	104.389787
2288.000000	104.398534
2286.000000	104.406298
2284.000000	104.413449
2282.000000	104.415234
2280.000000	104.412160
2278.000000	104.406860
2276.000000	104.404461
2274.000000	104.398694
2272.000000	104.391751
2270.000000	104.385635
2268.000000	104.381372
2266.000000	104.378176
2264.000000	104.375692
2262.000000	104.370463
2260.000000	104.369131
2258.000000	104.367181
2256.000000	104.365563
2254.000000	104.366452
2252.000000	104.369998
2250.000000	104.374556
2248.000000	104.385023
2246.000000	104.395020
2244.000000	104.403606
2242.000000	104.414770
2240.000000	104.430815
2238.000000	104.444573
2236.000000	104.456095
2234.000000	104.467923
2232.000000	104.483766
2230.000000	104.497245
2228.000000	104.508201
2226.000000	104.517550
2224.000000	104.529155
2222.000000	104.537317
2220.000000	104.545737
2218.000000	104.552880
2216.000000	104.560384
2214.000000	104.565969
2212.000000	104.572597
2210.000000	104.577731
2208.000000	104.582109
2206.000000	104.585716
2204.000000	104.591661
2202.000000	104.595252
2200.000000	104.598220
2198.000000	104.600926
2196.000000	104.604942
2194.000000	104.605722
2192.000000	104.607006
2190.000000	104.607510
2188.000000	104.608763
2186.000000	104.609048
2184.000000	104.608579
2182.000000	104.605099
2180.000000	104.604895
2178.000000	104.606261
2176.000000	104.604893
2174.000000	104.595526
2172.000000	104.570981
2170.000000	104.542853
2168.000000	104.552801
2166.000000	104.577033
2164.000000	104.587317
2162.000000	104.587834
2160.000000	104.584793
2158.000000	104.580900
2156.000000	104.581676
2154.000000	104.580841
2152.000000	104.580757
2150.000000	104.579103
2148.000000	104.576578
2146.000000	104.575073
2144.000000	104.575752
2142.000000	104.574770
2140.000000	104.573573
2138.000000	104.570317
2136.000000	104.568772
2134.000000	104.566692
2132.000000	104.566371
2130.000000	104.566475
2128.000000	104.566684
2126.000000	104.563704
2124.000000	104.560529
2122.000000	104.562681
2120.000000	104.566129
2118.000000	104.566490
2116.000000	104.570291
2114.000000	104.577514
2112.000000	104.587586
2110.000000	104.599519
2108.000000	104.610790
2106.000000	104.621582
2104.000000	104.634315
2102.000000	104.646310
2100.000000	104.659958
2098.000000	104.672555
2096.000000	104.685985
2094.000000	104.699552
2092.000000	104.711285
2090.000000	104.720126
2088.000000	104.735389
2086.000000	104.750901
2084.000000	104.768974
2082.000000	104.781100
2080.000000	104.797057
2078.000000	104.813703
2076.000000	104.832071
2074.000000	104.849183
2072.000000	104.868483
2070.000000	104.884442
2068.000000	104.899924
2066.000000	104.913326
2064.000000	104.935306
2062.000000	104.961328
2060.000000	104.986548
2058.000000	105.006192
2056.000000	105.026202
2054.000000	105.047964
2052.000000	105.067766
2050.000000	105.086119
2048.000000	105.106959
2046.000000	105.123607
2044.000000	105.139903
2042.000000	105.152268
2040.000000	105.171146
2038.000000	105.189919
2036.000000	105.204253
2034.000000	105.212372
2032.000000	105.212365
2030.000000	105.195022
2028.000000	105.204326
2026.000000	105.239379
2024.000000	105.260825
2022.000000	105.268642
2020.000000	105.271001
2018.000000	105.271658
2016.000000	105.293318
2014.000000	105.324049
2012.000000	105.347737
2010.000000	105.363389
2008.000000	105.376640
2006.000000	105.389380
2004.000000	105.401536
2002.000000	105.406814
2000.000000	105.410157
1998.000000	105.413970
1996.000000	105.414653
1994.000000	105.387674
1992.000000	105.363856
1990.000000	105.380292
1988.000000	105.398506
1986.000000	105.404418
1984.000000	105.402003
1982.000000	105.389594
1980.000000	105.377337
1978.000000	105.363461
1976.000000	105.349488
1974.000000	105.332995
1972.000000	105.314655
1970.000000	105.283718
1968.000000	105.239508
1966.000000	105.217570
1964.000000	105.210011
1962.000000	105.153015
1960.000000	105.031124
1958.000000	105.001672
1956.000000	105.084155
1954.000000	105.109429
1952.000000	105.087214
1950.000000	105.056243
1948.000000	105.035375
1946.000000	104.997985
1944.000000	104.929059
1942.000000	104.895099
1940.000000	104.929359
1938.000000	104.933397
1936.000000	104.913195
1934.000000	104.885950
1932.000000	104.860115
1930.000000	104.830461
1928.000000	104.803615
1926.000000	104.754591
1924.000000	104.680849
1922.000000	104.633192
1920.000000	104.556342
1918.000000	104.458689
1916.000000	104.499313
1914.000000	104.522818
1912.000000	104.469118
1910.000000	104.392156
1908.000000	104.344782
1906.000000	104.306342
1904.000000	104.260550
1902.000000	104.204445
1900.000000	104.156180
1898.000000	104.098615
1896.000000	104.040345
1894.000000	104.008342
1892.000000	103.965958
1890.000000	103.885463
1888.000000	103.898595
1886.000000	103.928619
1884.000000	103.920899
1882.000000	103.903623
1880.000000	103.885458
1878.000000	103.857289
1876.000000	103.833397
1874.000000	103.799493
1872.000000	103.702591
1870.000000	103.511722
1868.000000	103.477488
1866.000000	103.589411
1864.000000	103.639540
1862.000000	103.616777
1860.000000	103.584713
1858.000000	103.550825
1856.000000	103.524439
1854.000000	103.489540
1852.000000	103.450846
1850.000000	103.383156
1848.000000	103.272122
1846.000000	103.001200
1844.000000	102.825365
1842.000000	103.019284
1840.000000	103.143463
1838.000000	103.090587
1836.000000	103.036867
1834.000000	102.969778
1832.000000	102.789369
1830.000000	102.606172
1828.000000	102.610333
1826.000000	102.559549
1824.000000	102.540700
1822.000000	102.581975
1820.000000	102.542339
1818.000000	102.461549
1816.000000	102.399609
1814.000000	102.314240
1812.000000	102.177717
1810.000000	102.074721
1808.000000	102.032737
1806.000000	101.959180
1804.000000	101.813596
1802.000000	101.607343
1800.000000	101.484307
1798.000000	101.444534
1796.000000	101.319324
1794.000000	100.961120
1792.000000	100.741562
1790.000000	100.879868
1788.000000	100.931317
1786.000000	100.761968
1784.000000	100.632019
1782.000000	100.531418
1780.000000	100.424973
1778.000000	100.349886
1776.000000	100.140455
1774.000000	99.653878
1772.000000	99.392893
1770.000000	99.562348
1768.000000	99.641769
1766.000000	99.721934
1764.000000	99.594978
1762.000000	99.341146
1760.000000	99.308640
1758.000000	99.210497
1756.000000	99.075598
1754.000000	98.889239
1752.000000	98.428697
1750.000000	98.227553
1748.000000	98.273328
1746.000000	98.236667
1744.000000	98.082985
1742.000000	97.821682
1740.000000	97.573023
1738.000000	97.504449
1736.000000	96.975031
1734.000000	96.438870
1732.000000	96.878880
1730.000000	97.301945
1728.000000	97.384014
1726.000000	97.352330
1724.000000	97.268320
1722.000000	97.141493
1720.000000	96.641854
1718.000000	95.954255
1716.000000	96.045281
1714.000000	96.491915
1712.000000	96.683410
1710.000000	96.602205
1708.000000	96.370240
1706.000000	96.104564
1704.000000	95.947902
1702.000000	95.307834
1700.000000	94.825913
1698.000000	94.963962
1696.000000	94.889859
1694.000000	95.445381
1692.000000	95.935153
1690.000000	95.881196
1688.000000	95.598079
1686.000000	94.731749
1684.000000	94.389654
1682.000000	95.114964
1680.000000	95.515015
1678.000000	95.390197
1676.000000	95.004039
1674.000000	94.964884
1672.000000	94.957270
1670.000000	94.696058
1668.000000	94.786139
1666.000000	94.940006
1664.000000	94.719417
1662.000000	94.583506
1660.000000	94.671207
1658.000000	94.572589
1656.000000	93.833250
1654.000000	92.486940
1652.000000	92.529044
1650.000000	93.507222
1648.000000	93.394792
1646.000000	93.153374
1644.000000	93.482185
1642.000000	93.649139
1640.000000	93.458288
1638.000000	92.920476
1636.000000	92.293438
1634.000000	92.457282
1632.000000	92.772075
1630.000000	92.585839
1628.000000	92.245777
1626.000000	91.874689
1624.000000	91.345774
1622.000000	90.946632
1620.000000	90.529716
1618.000000	89.708493
1616.000000	89.247099
1614.000000	89.211876
1612.000000	88.727754
1610.000000	88.106091
1608.000000	87.782909
1606.000000	87.807034
1604.000000	88.001886
1602.000000	88.243769
1600.000000	88.476830
1598.000000	88.681320
1596.000000	88.833066
1594.000000	88.949552
1592.000000	89.013202
1590.000000	89.014979
1588.000000	88.976405
1586.000000	88.908372
1584.000000	88.830905
1582.000000	88.778115
1580.000000	88.669702
1578.000000	88.150506
1576.000000	87.771097
1574.000000	88.212898
1572.000000	88.327992
1570.000000	88.012349
1568.000000	87.981599
1566.000000	87.943558
1564.000000	87.664251
1562.000000	86.860029
1560.000000	85.629189
1558.000000	85.600105
1556.000000	86.429163
1554.000000	86.938265
1552.000000	87.358309
1550.000000	87.632581
1548.000000	87.812904
1546.000000	87.793491
1544.000000	87.620542
1542.000000	87.248562
1540.000000	87.076183
1538.000000	87.892147
1536.000000	88.695848
1534.000000	88.768269
1532.000000	88.990971
1530.000000	89.201306
1528.000000	89.100449
1526.000000	88.921403
1524.000000	88.678624
1522.000000	88.225879
1520.000000	88.248435
1518.000000	88.392411
1516.000000	88.279076
1514.000000	88.169305
1512.000000	87.976456
1510.000000	87.578435
1508.000000	86.622535
1506.000000	85.995226
1504.000000	85.980960
1502.000000	85.020537
1500.000000	82.602524
1498.000000	79.385155
1496.000000	76.868259
1494.000000	76.392480
1492.000000	77.489404
1490.000000	79.291381
1488.000000	81.215347
1486.000000	82.759142
1484.000000	83.769711
1482.000000	84.285384
1480.000000	84.525642
1478.000000	84.486133
1476.000000	84.213796
1474.000000	83.784581
1472.000000	83.588316
1470.000000	83.697293
1468.000000	83.507286
1466.000000	82.980513
1464.000000	82.592368
1462.000000	82.277502
1460.000000	81.408348
1458.000000	79.946014
1456.000000	78.906223
1454.000000	78.402481
1452.000000	77.871530
1450.000000	77.952286
1448.000000	78.798438
1446.000000	79.759317
1444.000000	80.237839
1442.000000	80.352364
1440.000000	80.278668
1438.000000	79.986805
1436.000000	79.973061
1434.000000	80.338317
1432.000000	80.412656
1430.000000	80.352578
1428.000000	80.370216
1426.000000	80.368757
1424.000000	80.276894
1422.000000	80.072894
1420.000000	79.636082
1418.000000	79.547060
1416.000000	79.648616
1414.000000	79.503688
1412.000000	79.148670
1410.000000	78.617333
1408.000000	77.864650
1406.000000	77.053674
1404.000000	76.583977
1402.000000	76.594448
1400.000000	76.843863
1398.000000	77.285473
1396.000000	77.671339
1394.000000	77.987359
1392.000000	78.287945
1390.000000	78.293293
1388.000000	77.998495
1386.000000	77.708359
1384.000000	77.594108
1382.000000	77.698467
1380.000000	77.797871
1378.000000	77.744117
1376.000000	77.597504
1374.000000	77.470651
1372.000000	77.423447
1370.000000	77.321543
1368.000000	77.166346
1366.000000	77.008017
1364.000000	76.790287
1362.000000	76.609209
1360.000000	76.503525
1358.000000	76.362644
1356.000000	76.167085
1354.000000	75.962883
1352.000000	75.755053
1350.000000	75.540193
1348.000000	75.320494
1346.000000	75.090289
1344.000000	74.842732
1342.000000	74.574351
1340.000000	74.327568
1338.000000	74.189144
1336.000000	74.107821
1334.000000	74.007401
1332.000000	73.855574
1330.000000	73.662535
1328.000000	73.441127
1326.000000	73.199952
1324.000000	72.934951
1322.000000	72.650765
1320.000000	72.347315
1318.000000	72.049382
1316.000000	71.755102
1314.000000	71.444529
1312.000000	71.127285
1310.000000	70.810851
1308.000000	70.483938
1306.000000	70.154038
1304.000000	69.813535
1302.000000	69.470013
1300.000000	69.125553
1298.000000	68.781681
1296.000000	68.426685
1294.000000	68.059405
1292.000000	67.674676
1290.000000	67.278427
1288.000000	66.875477
1286.000000	66.474703
1284.000000	66.060888
1282.000000	65.632058
1280.000000	65.175309
1278.000000	64.685961
1276.000000	64.147839
1274.000000	63.536005
1272.000000	62.810378
1270.000000	61.924271
1268.000000	60.815999
1266.000000	59.497091
1264.000000	58.128116
1262.000000	57.031741
1260.000000	56.485770
1258.000000	56.491067
1256.000000	56.776910
1254.000000	57.018423
1252.000000	57.015352
1250.000000	56.770097
1248.000000	56.372669
1246.000000	55.900350
1244.000000	55.392457
1242.000000	54.879313
1240.000000	54.370212
1238.000000	53.877832
1236.000000	53.400907
1234.000000	52.936167
1232.000000	52.482609
1230.000000	52.040315
1228.000000	51.597818
1226.000000	51.147915
1224.000000	50.686252
1222.000000	50.212254
1220.000000	49.718634
1218.000000	49.208517
1216.000000	48.688113
1214.000000	48.174480
1212.000000	47.683769
1210.000000	47.230935
1208.000000	46.813362
1206.000000	46.415237
1204.000000	46.016626
1202.000000	45.619449
1200.000000	45.227612
1198.000000	44.839486
1196.000000	44.447716
1194.000000	44.043072
1192.000000	43.622581
1190.000000	43.193266
1188.000000	42.753086
1186.000000	42.282408
1184.000000	41.700514
1182.000000	40.974835
1180.000000	40.407649
1178.000000	40.158038
1176.000000	39.925008
1174.000000	39.568911
1172.000000	39.144634
1170.000000	38.696395
1168.000000	38.230403
1166.000000	37.753188
1164.000000	37.279886
1162.000000	36.819621
1160.000000	36.366036
1158.000000	35.929776
1156.000000	35.505934
1154.000000	35.085816
1152.000000	34.660818
1150.000000	34.241511
1148.000000	33.810935
1146.000000	33.372194
1144.000000	32.943717
1142.000000	32.562474
1140.000000	32.248020
1138.000000	31.934219
1136.000000	31.576262
1134.000000	31.184502
1132.000000	30.768710
1130.000000	30.341208
1128.000000	29.917619
1126.000000	29.499728
1124.000000	29.070821
1122.000000	28.631491
1120.000000	28.180521
1118.000000	27.721568
1116.000000	27.255667
1114.000000	26.786422
1112.000000	26.316095
1110.000000	25.853011
1108.000000	25.399339
1106.000000	24.965177
1104.000000	24.552482
1102.000000	24.145106
1100.000000	23.730247
1098.000000	23.321575
1096.000000	22.924363
1094.000000	22.542066
1092.000000	22.174313
1090.000000	21.820608
1088.000000	21.476003
1086.000000	21.138125
1084.000000	20.791027
1082.000000	20.432627
1080.000000	20.093305
1078.000000	19.789291
1076.000000	19.513463
1074.000000	19.280530
1072.000000	19.065493
1070.000000	18.843576
1068.000000	18.611144
1066.000000	18.376159
1064.000000	18.143416
1062.000000	17.910671
1060.000000	17.664486
1058.000000	17.377710
1056.000000	16.988640
1054.000000	16.475503
1052.000000	15.967751
1050.000000	15.666406
1048.000000	15.629321
1046.000000	15.712159
1044.000000	15.714305
1042.000000	15.596195
1040.000000	15.411030
1038.000000	15.197622
1036.000000	14.968644
1034.000000	14.731830
1032.000000	14.483928
1030.000000	14.228373
1028.000000	13.965202
1026.000000	13.697044
1024.000000	13.422885
1022.000000	13.154663
1020.000000	12.899973
1018.000000	12.663993
1016.000000	12.448599
1014.000000	12.258715
1012.000000	12.090963
1010.000000	11.932395
1008.000000	11.765767
1006.000000	11.587670
1004.000000	11.392235
1002.000000	11.178048
1000.000000	10.950259
