PE IR       SUBTECH     SPECTRUM    ASCII       PEDS        4.00        
   -1
TE110A_076_80K_AFTER_130K_BG.ASC
20/05/14
15:21:44.00
20/05/14
15:21:44.00
Administrator
TE110A.Thursday, May 14 2020, 007.
1000.000000
#HDR
-1
-1
#GR
cm-1
EGY
1.0
0.0
6000.000000
-2.000000
2501
8
105.180987
11.087337
#DATA
6000.000000	16.378962
5998.000000	16.412200
5996.000000	16.444625
5994.000000	16.476263
5992.000000	16.507692
5990.000000	16.539982
5988.000000	16.572695
5986.000000	16.605891
5984.000000	16.637514
5982.000000	16.669472
5980.000000	16.701558
5978.000000	16.734940
5976.000000	16.769042
5974.000000	16.801834
5972.000000	16.834303
5970.000000	16.868167
5968.000000	16.902330
5966.000000	16.936371
5964.000000	16.968758
5962.000000	17.000520
5960.000000	17.033941
5958.000000	17.068873
5956.000000	17.102850
5954.000000	17.135673
5952.000000	17.167508
5950.000000	17.200831
5948.000000	17.234367
5946.000000	17.267971
5944.000000	17.300378
5942.000000	17.333365
5940.000000	17.366051
5938.000000	17.399262
5936.000000	17.431978
5934.000000	17.465556
5932.000000	17.499187
5930.000000	17.533349
5928.000000	17.567599
5926.000000	17.601693
5924.000000	17.635661
5922.000000	17.670006
5920.000000	17.704853
5918.000000	17.740520
5916.000000	17.776237
5914.000000	17.811373
5912.000000	17.846101
5910.000000	17.882196
5908.000000	17.918099
5906.000000	17.954444
5904.000000	17.989543
5902.000000	18.024495
5900.000000	18.059694
5898.000000	18.096109
5896.000000	18.131206
5894.000000	18.166039
5892.000000	18.201058
5890.000000	18.237711
5888.000000	18.275172
5886.000000	18.311013
5884.000000	18.345576
5882.000000	18.381472
5880.000000	18.416215
5878.000000	18.451884
5876.000000	18.486761
5874.000000	18.522129
5872.000000	18.557609
5870.000000	18.593204
5868.000000	18.629888
5866.000000	18.667118
5864.000000	18.702941
5862.000000	18.739396
5860.000000	18.776006
5858.000000	18.814036
5856.000000	18.850509
5854.000000	18.887198
5852.000000	18.924079
5850.000000	18.962522
5848.000000	19.001696
5846.000000	19.041591
5844.000000	19.080630
5842.000000	19.119760
5840.000000	19.158107
5838.000000	19.197290
5836.000000	19.236891
5834.000000	19.278398
5832.000000	19.320271
5830.000000	19.362334
5828.000000	19.403032
5826.000000	19.443447
5824.000000	19.484314
5822.000000	19.524952
5820.000000	19.564980
5818.000000	19.605553
5816.000000	19.645938
5814.000000	19.685869
5812.000000	19.724705
5810.000000	19.763717
5808.000000	19.802782
5806.000000	19.842635
5804.000000	19.881434
5802.000000	19.921341
5800.000000	19.960868
5798.000000	20.000526
5796.000000	20.040884
5794.000000	20.082438
5792.000000	20.124251
5790.000000	20.165305
5788.000000	20.204609
5786.000000	20.244195
5784.000000	20.284008
5782.000000	20.325331
5780.000000	20.366510
5778.000000	20.407774
5776.000000	20.448357
5774.000000	20.489743
5772.000000	20.530462
5770.000000	20.572137
5768.000000	20.613371
5766.000000	20.654477
5764.000000	20.695458
5762.000000	20.736530
5760.000000	20.777700
5758.000000	20.818968
5756.000000	20.859357
5754.000000	20.900978
5752.000000	20.941998
5750.000000	20.982609
5748.000000	21.022473
5746.000000	21.063260
5744.000000	21.104380
5742.000000	21.145120
5740.000000	21.184672
5738.000000	21.224460
5736.000000	21.263684
5734.000000	21.303432
5732.000000	21.342243
5730.000000	21.381767
5728.000000	21.420621
5726.000000	21.461209
5724.000000	21.501658
5722.000000	21.542919
5720.000000	21.584673
5718.000000	21.627606
5716.000000	21.670449
5714.000000	21.712748
5712.000000	21.755460
5710.000000	21.798902
5708.000000	21.841071
5706.000000	21.882885
5704.000000	21.925316
5702.000000	21.969939
5700.000000	22.014511
5698.000000	22.058623
5696.000000	22.102516
5694.000000	22.146601
5692.000000	22.190456
5690.000000	22.234466
5688.000000	22.279406
5686.000000	22.325154
5684.000000	22.369721
5682.000000	22.413956
5680.000000	22.457436
5678.000000	22.502170
5676.000000	22.546211
5674.000000	22.591760
5672.000000	22.637258
5670.000000	22.682017
5668.000000	22.725638
5666.000000	22.770208
5664.000000	22.815021
5662.000000	22.859822
5660.000000	22.904194
5658.000000	22.949658
5656.000000	22.994540
5654.000000	23.039192
5652.000000	23.082568
5650.000000	23.126501
5648.000000	23.170998
5646.000000	23.216385
5644.000000	23.261591
5642.000000	23.306920
5640.000000	23.351231
5638.000000	23.396341
5636.000000	23.441124
5634.000000	23.486959
5632.000000	23.531243
5630.000000	23.574936
5628.000000	23.619090
5626.000000	23.665195
5624.000000	23.710320
5622.000000	23.753955
5620.000000	23.797325
5618.000000	23.842208
5616.000000	23.887872
5614.000000	23.933641
5612.000000	23.978413
5610.000000	24.023379
5608.000000	24.067564
5606.000000	24.112612
5604.000000	24.157665
5602.000000	24.202782
5600.000000	24.247701
5598.000000	24.292506
5596.000000	24.337675
5594.000000	24.384148
5592.000000	24.430576
5590.000000	24.476739
5588.000000	24.521183
5586.000000	24.566517
5584.000000	24.612423
5582.000000	24.659525
5580.000000	24.706785
5578.000000	24.754282
5576.000000	24.801423
5574.000000	24.847338
5572.000000	24.892996
5570.000000	24.940770
5568.000000	24.988871
5566.000000	25.037010
5564.000000	25.082886
5562.000000	25.129426
5560.000000	25.176270
5558.000000	25.223103
5556.000000	25.268300
5554.000000	25.313094
5552.000000	25.357485
5550.000000	25.405000
5548.000000	25.453808
5546.000000	25.503512
5544.000000	25.551004
5542.000000	25.597070
5540.000000	25.642021
5538.000000	25.688138
5536.000000	25.733555
5534.000000	25.781007
5532.000000	25.828509
5530.000000	25.876751
5528.000000	25.923961
5526.000000	25.969494
5524.000000	26.015470
5522.000000	26.061734
5520.000000	26.107377
5518.000000	26.154091
5516.000000	26.201530
5514.000000	26.250764
5512.000000	26.297424
5510.000000	26.341128
5508.000000	26.385113
5506.000000	26.432687
5504.000000	26.482261
5502.000000	26.531013
5500.000000	26.577567
5498.000000	26.623147
5496.000000	26.663827
5494.000000	26.703722
5492.000000	26.746508
5490.000000	26.797104
5488.000000	26.852244
5486.000000	26.908935
5484.000000	26.964046
5482.000000	27.015716
5480.000000	27.057686
5478.000000	27.092614
5476.000000	27.132481
5474.000000	27.184790
5472.000000	27.242664
5470.000000	27.294243
5468.000000	27.340179
5466.000000	27.385760
5464.000000	27.429495
5462.000000	27.476192
5460.000000	27.527924
5458.000000	27.584246
5456.000000	27.638999
5454.000000	27.688102
5452.000000	27.731134
5450.000000	27.768806
5448.000000	27.805476
5446.000000	27.848206
5444.000000	27.893553
5442.000000	27.945940
5440.000000	27.999955
5438.000000	28.050287
5436.000000	28.096891
5434.000000	28.142516
5432.000000	28.186909
5430.000000	28.232657
5428.000000	28.286948
5426.000000	28.351930
5424.000000	28.414316
5422.000000	28.469036
5420.000000	28.516875
5418.000000	28.552355
5416.000000	28.576142
5414.000000	28.604856
5412.000000	28.650979
5410.000000	28.716540
5408.000000	28.784002
5406.000000	28.845656
5404.000000	28.899827
5402.000000	28.951590
5400.000000	28.997231
5398.000000	29.033836
5396.000000	29.066563
5394.000000	29.113025
5392.000000	29.173974
5390.000000	29.235351
5388.000000	29.282730
5386.000000	29.327550
5384.000000	29.381579
5382.000000	29.437837
5380.000000	29.478203
5378.000000	29.512671
5376.000000	29.559948
5374.000000	29.625948
5372.000000	29.694126
5370.000000	29.753459
5368.000000	29.802340
5366.000000	29.847053
5364.000000	29.894295
5362.000000	29.948288
5360.000000	30.002303
5358.000000	30.045004
5356.000000	30.075051
5354.000000	30.111875
5352.000000	30.163135
5350.000000	30.218619
5348.000000	30.257622
5346.000000	30.294108
5344.000000	30.342745
5342.000000	30.395632
5340.000000	30.442592
5338.000000	30.493638
5336.000000	30.557391
5334.000000	30.624108
5332.000000	30.678894
5330.000000	30.724003
5328.000000	30.771012
5326.000000	30.828679
5324.000000	30.892606
5322.000000	30.951235
5320.000000	31.001746
5318.000000	31.051176
5316.000000	31.101604
5314.000000	31.153303
5312.000000	31.200905
5310.000000	31.242936
5308.000000	31.286065
5306.000000	31.338257
5304.000000	31.395855
5302.000000	31.451103
5300.000000	31.503258
5298.000000	31.556373
5296.000000	31.607772
5294.000000	31.651371
5292.000000	31.691293
5290.000000	31.739283
5288.000000	31.794906
5286.000000	31.851959
5284.000000	31.904461
5282.000000	31.957691
5280.000000	32.011970
5278.000000	32.067621
5276.000000	32.122261
5274.000000	32.174386
5272.000000	32.222341
5270.000000	32.267885
5268.000000	32.306121
5266.000000	32.341030
5264.000000	32.384293
5262.000000	32.446301
5260.000000	32.514235
5258.000000	32.569467
5256.000000	32.614488
5254.000000	32.664048
5252.000000	32.712748
5250.000000	32.754523
5248.000000	32.795466
5246.000000	32.849429
5244.000000	32.915172
5242.000000	32.982220
5240.000000	33.044212
5238.000000	33.098515
5236.000000	33.147183
5234.000000	33.194199
5232.000000	33.241563
5230.000000	33.287625
5228.000000	33.328948
5226.000000	33.374933
5224.000000	33.431791
5222.000000	33.495252
5220.000000	33.553319
5218.000000	33.608580
5216.000000	33.663721
5214.000000	33.716931
5212.000000	33.759286
5210.000000	33.790216
5208.000000	33.824096
5206.000000	33.880410
5204.000000	33.953369
5202.000000	34.023722
5200.000000	34.078231
5198.000000	34.127833
5196.000000	34.181203
5194.000000	34.239257
5192.000000	34.294991
5190.000000	34.347003
5188.000000	34.395092
5186.000000	34.445014
5184.000000	34.499030
5182.000000	34.557640
5180.000000	34.614970
5178.000000	34.671354
5176.000000	34.726691
5174.000000	34.780732
5172.000000	34.833453
5170.000000	34.888911
5168.000000	34.944237
5166.000000	34.997420
5164.000000	35.048424
5162.000000	35.102131
5160.000000	35.156628
5158.000000	35.210466
5156.000000	35.264198
5154.000000	35.320218
5152.000000	35.375575
5150.000000	35.429670
5148.000000	35.483389
5146.000000	35.537582
5144.000000	35.591312
5142.000000	35.646509
5140.000000	35.701263
5138.000000	35.755493
5136.000000	35.807694
5134.000000	35.861308
5132.000000	35.915312
5130.000000	35.970706
5128.000000	36.024691
5126.000000	36.077484
5124.000000	36.129803
5122.000000	36.182935
5120.000000	36.235669
5118.000000	36.290271
5116.000000	36.346279
5114.000000	36.401930
5112.000000	36.455792
5110.000000	36.510502
5108.000000	36.565141
5106.000000	36.619996
5104.000000	36.674891
5102.000000	36.730890
5100.000000	36.785076
5098.000000	36.838892
5096.000000	36.893731
5094.000000	36.951163
5092.000000	37.008569
5090.000000	37.065195
5088.000000	37.120642
5086.000000	37.177376
5084.000000	37.233431
5082.000000	37.289756
5080.000000	37.345700
5078.000000	37.402500
5076.000000	37.458461
5074.000000	37.514362
5072.000000	37.570114
5070.000000	37.625905
5068.000000	37.681671
5066.000000	37.739085
5064.000000	37.795840
5062.000000	37.852503
5060.000000	37.908573
5058.000000	37.966037
5056.000000	38.021609
5054.000000	38.076084
5052.000000	38.130317
5050.000000	38.186272
5048.000000	38.242633
5046.000000	38.298913
5044.000000	38.353921
5042.000000	38.408938
5040.000000	38.464304
5038.000000	38.521142
5036.000000	38.576813
5034.000000	38.632186
5032.000000	38.686877
5030.000000	38.743096
5028.000000	38.799006
5026.000000	38.854717
5024.000000	38.909898
5022.000000	38.966401
5020.000000	39.023009
5018.000000	39.078872
5016.000000	39.133463
5014.000000	39.188964
5012.000000	39.244830
5010.000000	39.302383
5008.000000	39.360326
5006.000000	39.418739
5004.000000	39.475704
5002.000000	39.533068
5000.000000	39.590646
4998.000000	39.648954
4996.000000	39.705105
4994.000000	39.761538
4992.000000	39.818495
4990.000000	39.877789
4988.000000	39.936017
4986.000000	39.993890
4984.000000	40.050980
4982.000000	40.109387
4980.000000	40.167061
4978.000000	40.224738
4976.000000	40.281910
4974.000000	40.340046
4972.000000	40.397708
4970.000000	40.455967
4968.000000	40.513191
4966.000000	40.570966
4964.000000	40.628771
4962.000000	40.686753
4960.000000	40.743404
4958.000000	40.800514
4956.000000	40.856611
4954.000000	40.913162
4952.000000	40.969682
4950.000000	41.026845
4948.000000	41.083341
4946.000000	41.140758
4944.000000	41.197597
4942.000000	41.253778
4940.000000	41.308387
4938.000000	41.364584
4936.000000	41.422258
4934.000000	41.480958
4932.000000	41.536960
4930.000000	41.592343
4928.000000	41.647892
4926.000000	41.705021
4924.000000	41.762411
4922.000000	41.820653
4920.000000	41.878055
4918.000000	41.935394
4916.000000	41.992265
4914.000000	42.049338
4912.000000	42.105689
4910.000000	42.164329
4908.000000	42.223812
4906.000000	42.282477
4904.000000	42.338951
4902.000000	42.396955
4900.000000	42.455903
4898.000000	42.515056
4896.000000	42.573778
4894.000000	42.634327
4892.000000	42.694489
4890.000000	42.753925
4888.000000	42.811370
4886.000000	42.869068
4884.000000	42.927400
4882.000000	42.987419
4880.000000	43.047268
4878.000000	43.107860
4876.000000	43.168040
4874.000000	43.227235
4872.000000	43.284176
4870.000000	43.341323
4868.000000	43.398321
4866.000000	43.457030
4864.000000	43.516506
4862.000000	43.576408
4860.000000	43.634083
4858.000000	43.691258
4856.000000	43.748017
4854.000000	43.806447
4852.000000	43.864394
4850.000000	43.922232
4848.000000	43.979680
4846.000000	44.038822
4844.000000	44.096670
4842.000000	44.152887
4840.000000	44.209107
4838.000000	44.267265
4836.000000	44.325013
4834.000000	44.382707
4832.000000	44.439697
4830.000000	44.496994
4828.000000	44.554431
4826.000000	44.613088
4824.000000	44.670674
4822.000000	44.728521
4820.000000	44.786206
4818.000000	44.845371
4816.000000	44.904775
4814.000000	44.964528
4812.000000	45.022691
4810.000000	45.081680
4808.000000	45.141188
4806.000000	45.201588
4804.000000	45.261275
4802.000000	45.321049
4800.000000	45.380414
4798.000000	45.441391
4796.000000	45.501842
4794.000000	45.562362
4792.000000	45.622195
4790.000000	45.683245
4788.000000	45.743028
4786.000000	45.802563
4784.000000	45.862338
4782.000000	45.924020
4780.000000	45.984426
4778.000000	46.044103
4776.000000	46.102459
4774.000000	46.161042
4772.000000	46.219561
4770.000000	46.279397
4768.000000	46.338959
4766.000000	46.399372
4764.000000	46.458733
4762.000000	46.517446
4760.000000	46.576089
4758.000000	46.635956
4756.000000	46.694691
4754.000000	46.753418
4752.000000	46.811087
4750.000000	46.868441
4748.000000	46.925751
4746.000000	46.984871
4744.000000	47.043221
4742.000000	47.101567
4740.000000	47.159814
4738.000000	47.218056
4736.000000	47.274299
4734.000000	47.331783
4732.000000	47.390300
4730.000000	47.449207
4728.000000	47.507297
4726.000000	47.567383
4724.000000	47.628111
4722.000000	47.689230
4720.000000	47.749252
4718.000000	47.809703
4716.000000	47.869738
4714.000000	47.931183
4712.000000	47.992725
4710.000000	48.054961
4708.000000	48.116993
4706.000000	48.180473
4704.000000	48.243678
4702.000000	48.306920
4700.000000	48.369088
4698.000000	48.432154
4696.000000	48.495290
4694.000000	48.557848
4692.000000	48.618410
4690.000000	48.679406
4688.000000	48.740523
4686.000000	48.801677
4684.000000	48.862052
4682.000000	48.923625
4680.000000	48.984146
4678.000000	49.044748
4676.000000	49.106015
4674.000000	49.168754
4672.000000	49.229727
4670.000000	49.291185
4668.000000	49.353034
4666.000000	49.415267
4664.000000	49.475770
4662.000000	49.536665
4660.000000	49.597018
4658.000000	49.658439
4656.000000	49.719406
4654.000000	49.780098
4652.000000	49.839514
4650.000000	49.901106
4648.000000	49.962211
4646.000000	50.023058
4644.000000	50.083881
4642.000000	50.146847
4640.000000	50.208512
4638.000000	50.269114
4636.000000	50.329416
4634.000000	50.391654
4632.000000	50.453018
4630.000000	50.514085
4628.000000	50.574313
4626.000000	50.635297
4624.000000	50.695999
4622.000000	50.758077
4620.000000	50.819724
4618.000000	50.882490
4616.000000	50.946006
4614.000000	51.011230
4612.000000	51.075186
4610.000000	51.138737
4608.000000	51.202471
4606.000000	51.267970
4604.000000	51.333272
4602.000000	51.398741
4600.000000	51.463033
4598.000000	51.528341
4596.000000	51.593980
4594.000000	51.659479
4592.000000	51.723086
4590.000000	51.787390
4588.000000	51.851307
4586.000000	51.916325
4584.000000	51.981162
4582.000000	52.046070
4580.000000	52.109468
4578.000000	52.173350
4576.000000	52.236339
4574.000000	52.299598
4572.000000	52.362854
4570.000000	52.427483
4568.000000	52.491434
4566.000000	52.556037
4564.000000	52.619703
4562.000000	52.682658
4560.000000	52.744853
4558.000000	52.808330
4556.000000	52.870842
4554.000000	52.933888
4552.000000	52.997215
4550.000000	53.061776
4548.000000	53.124874
4546.000000	53.187336
4544.000000	53.248760
4542.000000	53.310260
4540.000000	53.370915
4538.000000	53.433798
4536.000000	53.498263
4534.000000	53.562887
4532.000000	53.625352
4530.000000	53.688349
4528.000000	53.751190
4526.000000	53.814370
4524.000000	53.877997
4522.000000	53.943300
4520.000000	54.007033
4518.000000	54.070890
4516.000000	54.135250
4514.000000	54.201032
4512.000000	54.265927
4510.000000	54.331109
4508.000000	54.395520
4506.000000	54.460333
4504.000000	54.525927
4502.000000	54.593890
4500.000000	54.660702
4498.000000	54.726264
4496.000000	54.791195
4494.000000	54.857232
4492.000000	54.922240
4490.000000	54.986659
4488.000000	55.050411
4486.000000	55.115936
4484.000000	55.181577
4482.000000	55.246501
4480.000000	55.309622
4478.000000	55.373451
4476.000000	55.437123
4474.000000	55.501994
4472.000000	55.566114
4470.000000	55.629406
4468.000000	55.691188
4466.000000	55.754188
4464.000000	55.817074
4462.000000	55.880276
4460.000000	55.942308
4458.000000	56.005777
4456.000000	56.068623
4454.000000	56.130248
4452.000000	56.190833
4450.000000	56.253205
4448.000000	56.316106
4446.000000	56.379499
4444.000000	56.442038
4442.000000	56.505818
4440.000000	56.569034
4438.000000	56.631542
4436.000000	56.693321
4434.000000	56.755877
4432.000000	56.818661
4430.000000	56.882854
4428.000000	56.945953
4426.000000	57.009071
4424.000000	57.071652
4422.000000	57.134795
4420.000000	57.198895
4418.000000	57.264835
4416.000000	57.329981
4414.000000	57.394704
4412.000000	57.457942
4410.000000	57.521573
4408.000000	57.586327
4406.000000	57.652169
4404.000000	57.716501
4402.000000	57.780677
4400.000000	57.844243
4398.000000	57.908223
4396.000000	57.972319
4394.000000	58.036827
4392.000000	58.099475
4390.000000	58.162240
4388.000000	58.224448
4386.000000	58.286618
4384.000000	58.348389
4382.000000	58.410643
4380.000000	58.470718
4378.000000	58.531234
4376.000000	58.592374
4374.000000	58.653468
4372.000000	58.713879
4370.000000	58.775591
4368.000000	58.835733
4366.000000	58.895335
4364.000000	58.954680
4362.000000	59.015594
4360.000000	59.077265
4358.000000	59.140240
4356.000000	59.203054
4354.000000	59.266482
4352.000000	59.328743
4350.000000	59.392310
4348.000000	59.455495
4346.000000	59.518285
4344.000000	59.581421
4342.000000	59.646391
4340.000000	59.709929
4338.000000	59.773161
4336.000000	59.835056
4334.000000	59.898126
4332.000000	59.963300
4330.000000	60.029860
4328.000000	60.094838
4326.000000	60.159697
4324.000000	60.224776
4322.000000	60.292169
4320.000000	60.359956
4318.000000	60.428584
4316.000000	60.496879
4314.000000	60.564337
4312.000000	60.631029
4310.000000	60.699342
4308.000000	60.766441
4306.000000	60.832743
4304.000000	60.897904
4302.000000	60.964055
4300.000000	61.030810
4298.000000	61.098325
4296.000000	61.164250
4294.000000	61.228403
4292.000000	61.291050
4290.000000	61.356041
4288.000000	61.419903
4286.000000	61.482097
4284.000000	61.543281
4282.000000	61.604123
4280.000000	61.663317
4278.000000	61.722963
4276.000000	61.782222
4274.000000	61.841970
4272.000000	61.900994
4270.000000	61.960948
4268.000000	62.021264
4266.000000	62.081797
4264.000000	62.141773
4262.000000	62.203496
4260.000000	62.265525
4258.000000	62.328336
4256.000000	62.391588
4254.000000	62.455882
4252.000000	62.520135
4250.000000	62.585937
4248.000000	62.650790
4246.000000	62.714212
4244.000000	62.777152
4242.000000	62.842285
4240.000000	62.906955
4238.000000	62.970519
4236.000000	63.032825
4234.000000	63.097853
4232.000000	63.164372
4230.000000	63.230426
4228.000000	63.294927
4226.000000	63.359503
4224.000000	63.423075
4222.000000	63.487563
4220.000000	63.551360
4218.000000	63.615642
4216.000000	63.680540
4214.000000	63.746276
4212.000000	63.812183
4210.000000	63.878970
4208.000000	63.944335
4206.000000	64.010034
4204.000000	64.076788
4202.000000	64.145645
4200.000000	64.214113
4198.000000	64.282904
4196.000000	64.351418
4194.000000	64.419721
4192.000000	64.487197
4190.000000	64.556369
4188.000000	64.625373
4186.000000	64.693051
4184.000000	64.759071
4182.000000	64.826247
4180.000000	64.892649
4178.000000	64.958463
4176.000000	65.023303
4174.000000	65.087950
4172.000000	65.151671
4170.000000	65.216800
4168.000000	65.282228
4166.000000	65.347393
4164.000000	65.410793
4162.000000	65.475007
4160.000000	65.540079
4158.000000	65.604425
4156.000000	65.666992
4154.000000	65.731926
4152.000000	65.798256
4150.000000	65.863578
4148.000000	65.927316
4146.000000	65.992812
4144.000000	66.058205
4142.000000	66.123596
4140.000000	66.188740
4138.000000	66.254285
4136.000000	66.318723
4134.000000	66.383780
4132.000000	66.449933
4130.000000	66.517715
4128.000000	66.585303
4126.000000	66.652717
4124.000000	66.718276
4122.000000	66.784362
4120.000000	66.850733
4118.000000	66.917332
4116.000000	66.983366
4114.000000	67.050382
4112.000000	67.115570
4110.000000	67.179564
4108.000000	67.243199
4106.000000	67.307846
4104.000000	67.373157
4102.000000	67.439139
4100.000000	67.502936
4098.000000	67.566100
4096.000000	67.628720
4094.000000	67.693511
4092.000000	67.759394
4090.000000	67.825401
4088.000000	67.893058
4086.000000	67.965036
4084.000000	68.035633
4082.000000	68.102898
4080.000000	68.169563
4078.000000	68.237876
4076.000000	68.304407
4074.000000	68.370573
4072.000000	68.436955
4070.000000	68.503854
4068.000000	68.569677
4066.000000	68.634585
4064.000000	68.697560
4062.000000	68.761261
4060.000000	68.826190
4058.000000	68.892685
4056.000000	68.958883
4054.000000	69.024724
4052.000000	69.089340
4050.000000	69.154078
4048.000000	69.215718
4046.000000	69.274678
4044.000000	69.337255
4042.000000	69.407431
4040.000000	69.477960
4038.000000	69.545986
4036.000000	69.612510
4034.000000	69.679725
4032.000000	69.746896
4030.000000	69.813905
4028.000000	69.878209
4026.000000	69.944114
4024.000000	70.014410
4022.000000	70.083764
4020.000000	70.149972
4018.000000	70.219934
4016.000000	70.290837
4014.000000	70.359822
4012.000000	70.426046
4010.000000	70.491203
4008.000000	70.559391
4006.000000	70.632197
4004.000000	70.703822
4002.000000	70.772929
4000.000000	70.839547
3998.000000	70.903073
3996.000000	70.963736
3994.000000	71.026885
3992.000000	71.091222
3990.000000	71.157935
3988.000000	71.226533
3986.000000	71.291480
3984.000000	71.352017
3982.000000	71.414660
3980.000000	71.477808
3978.000000	71.536308
3976.000000	71.590756
3974.000000	71.650503
3972.000000	71.715788
3970.000000	71.783242
3968.000000	71.851055
3966.000000	71.912222
3964.000000	71.960212
3962.000000	72.011938
3960.000000	72.078092
3958.000000	72.148239
3956.000000	72.212349
3954.000000	72.263420
3952.000000	72.290994
3950.000000	72.315563
3948.000000	72.373141
3946.000000	72.440626
3944.000000	72.486238
3942.000000	72.561800
3940.000000	72.676415
3938.000000	72.769569
3936.000000	72.799845
3934.000000	72.781517
3932.000000	72.807109
3930.000000	72.918342
3928.000000	73.016454
3926.000000	73.059580
3924.000000	73.112433
3922.000000	73.163901
3920.000000	73.162059
3918.000000	73.184907
3916.000000	73.328773
3914.000000	73.521202
3912.000000	73.648832
3910.000000	73.699828
3908.000000	73.619510
3906.000000	73.377698
3904.000000	73.170182
3902.000000	73.177743
3900.000000	73.394079
3898.000000	73.738467
3896.000000	73.989843
3894.000000	73.957132
3892.000000	73.858552
3890.000000	73.930346
3888.000000	73.919977
3886.000000	73.845561
3884.000000	73.983515
3882.000000	74.145161
3880.000000	74.283806
3878.000000	74.466827
3876.000000	74.506368
3874.000000	74.375642
3872.000000	74.126172
3870.000000	74.035393
3868.000000	74.251412
3866.000000	74.427782
3864.000000	74.549687
3862.000000	74.791107
3860.000000	74.992686
3858.000000	74.722342
3856.000000	73.746002
3854.000000	73.056420
3852.000000	73.651932
3850.000000	74.792282
3848.000000	75.425457
3846.000000	75.511777
3844.000000	75.398906
3842.000000	75.184934
3840.000000	74.787185
3838.000000	74.592112
3836.000000	74.939262
3834.000000	75.405506
3832.000000	75.689498
3830.000000	75.899652
3828.000000	76.030426
3826.000000	76.046198
3824.000000	75.823937
3822.000000	75.543027
3820.000000	75.547251
3818.000000	75.531132
3816.000000	75.595150
3814.000000	76.124970
3812.000000	76.597688
3810.000000	76.527848
3808.000000	76.231587
3806.000000	76.197452
3804.000000	76.109463
3802.000000	75.913686
3800.000000	76.196947
3798.000000	76.678187
3796.000000	76.970114
3794.000000	77.202822
3792.000000	77.365608
3790.000000	77.439309
3788.000000	77.465598
3786.000000	77.479435
3784.000000	77.510024
3782.000000	77.498474
3780.000000	77.481092
3778.000000	77.605928
3776.000000	77.787292
3774.000000	77.828814
3772.000000	77.688582
3770.000000	77.590699
3768.000000	77.676420
3766.000000	77.827801
3764.000000	77.966705
3762.000000	77.980101
3760.000000	77.911863
3758.000000	77.952377
3756.000000	77.862676
3754.000000	77.287448
3752.000000	76.650146
3750.000000	76.657449
3748.000000	76.908002
3746.000000	76.692517
3744.000000	76.846094
3742.000000	77.756817
3740.000000	78.249260
3738.000000	78.005074
3736.000000	77.756239
3734.000000	77.863603
3732.000000	78.236082
3730.000000	78.672086
3728.000000	78.864272
3726.000000	78.887892
3724.000000	78.958400
3722.000000	79.082291
3720.000000	79.242472
3718.000000	79.381420
3716.000000	79.320207
3714.000000	78.956091
3712.000000	78.709003
3710.000000	78.955516
3708.000000	79.419352
3706.000000	79.699947
3704.000000	79.702175
3702.000000	79.672813
3700.000000	79.819972
3698.000000	79.994963
3696.000000	80.048444
3694.000000	79.916391
3692.000000	79.502939
3690.000000	79.030621
3688.000000	79.143237
3686.000000	79.806930
3684.000000	80.268768
3682.000000	80.325086
3680.000000	80.091396
3678.000000	79.509405
3676.000000	79.077932
3674.000000	79.237071
3672.000000	79.362898
3670.000000	79.489868
3668.000000	80.045189
3666.000000	80.571091
3664.000000	80.771293
3662.000000	80.805527
3660.000000	80.705641
3658.000000	80.448306
3656.000000	80.350302
3654.000000	80.372036
3652.000000	79.990955
3650.000000	79.536978
3648.000000	79.735028
3646.000000	80.375209
3644.000000	80.832920
3642.000000	80.989374
3640.000000	81.030319
3638.000000	81.035876
3636.000000	80.995092
3634.000000	80.873705
3632.000000	80.464372
3630.000000	79.934766
3628.000000	80.057011
3626.000000	80.684635
3624.000000	80.999568
3622.000000	80.833716
3620.000000	80.580369
3618.000000	80.619920
3616.000000	80.767452
3614.000000	80.752851
3612.000000	80.657297
3610.000000	80.590302
3608.000000	80.704387
3606.000000	80.969196
3604.000000	81.119436
3602.000000	81.110737
3600.000000	81.076607
3598.000000	81.045105
3596.000000	81.002808
3594.000000	81.014368
3592.000000	81.000532
3590.000000	80.806151
3588.000000	80.645063
3586.000000	80.781607
3584.000000	81.023726
3582.000000	81.134071
3580.000000	81.144918
3578.000000	81.141662
3576.000000	81.140562
3574.000000	81.139451
3572.000000	81.080643
3570.000000	80.871520
3568.000000	80.659908
3566.000000	80.706080
3564.000000	80.902795
3562.000000	81.018472
3560.000000	81.056211
3558.000000	81.079226
3556.000000	81.069066
3554.000000	81.019438
3552.000000	80.990754
3550.000000	80.976016
3548.000000	80.910666
3546.000000	80.860545
3544.000000	80.901095
3542.000000	80.970534
3540.000000	80.990389
3538.000000	80.960286
3536.000000	80.933945
3534.000000	80.927115
3532.000000	80.892761
3530.000000	80.823473
3528.000000	80.758501
3526.000000	80.711522
3524.000000	80.677318
3522.000000	80.669978
3520.000000	80.670591
3518.000000	80.654871
3516.000000	80.626467
3514.000000	80.582333
3512.000000	80.518526
3510.000000	80.458442
3508.000000	80.421077
3506.000000	80.362431
3504.000000	80.275711
3502.000000	80.227369
3500.000000	80.211257
3498.000000	80.171712
3496.000000	80.117295
3494.000000	80.072179
3492.000000	80.022745
3490.000000	79.959853
3488.000000	79.902441
3486.000000	79.861029
3484.000000	79.815755
3482.000000	79.775012
3480.000000	79.764972
3478.000000	79.770341
3476.000000	79.770077
3474.000000	79.773495
3472.000000	79.783015
3470.000000	79.787839
3468.000000	79.797709
3466.000000	79.827548
3464.000000	79.866105
3462.000000	79.903332
3460.000000	79.944056
3458.000000	79.985437
3456.000000	80.021334
3454.000000	80.050669
3452.000000	80.072019
3450.000000	80.072149
3448.000000	80.063171
3446.000000	80.089190
3444.000000	80.144861
3442.000000	80.208089
3440.000000	80.283598
3438.000000	80.370468
3436.000000	80.469228
3434.000000	80.589257
3432.000000	80.728675
3430.000000	80.873175
3428.000000	81.016662
3426.000000	81.153305
3424.000000	81.272114
3422.000000	81.375140
3420.000000	81.484827
3418.000000	81.601254
3416.000000	81.703115
3414.000000	81.785980
3412.000000	81.858095
3410.000000	81.923366
3408.000000	81.983512
3406.000000	82.039547
3404.000000	82.088686
3402.000000	82.132682
3400.000000	82.187910
3398.000000	82.265094
3396.000000	82.348458
3394.000000	82.415809
3392.000000	82.480100
3390.000000	82.562045
3388.000000	82.642099
3386.000000	82.705638
3384.000000	82.765319
3382.000000	82.824530
3380.000000	82.879376
3378.000000	82.931135
3376.000000	82.982024
3374.000000	83.030313
3372.000000	83.067962
3370.000000	83.094555
3368.000000	83.130362
3366.000000	83.182325
3364.000000	83.237783
3362.000000	83.289140
3360.000000	83.336610
3358.000000	83.380216
3356.000000	83.421572
3354.000000	83.462756
3352.000000	83.501684
3350.000000	83.541888
3348.000000	83.588615
3346.000000	83.634159
3344.000000	83.674352
3342.000000	83.713008
3340.000000	83.749070
3338.000000	83.784111
3336.000000	83.827348
3334.000000	83.875565
3332.000000	83.919934
3330.000000	83.957768
3328.000000	83.990771
3326.000000	84.023378
3324.000000	84.062376
3322.000000	84.105185
3320.000000	84.145384
3318.000000	84.181222
3316.000000	84.214388
3314.000000	84.246764
3312.000000	84.277866
3310.000000	84.302868
3308.000000	84.324906
3306.000000	84.353122
3304.000000	84.398027
3302.000000	84.452228
3300.000000	84.496477
3298.000000	84.530401
3296.000000	84.561872
3294.000000	84.590735
3292.000000	84.622463
3290.000000	84.666441
3288.000000	84.714556
3286.000000	84.756856
3284.000000	84.794920
3282.000000	84.831294
3280.000000	84.868036
3278.000000	84.902626
3276.000000	84.934510
3274.000000	84.967644
3272.000000	85.005257
3270.000000	85.051131
3268.000000	85.103460
3266.000000	85.151308
3264.000000	85.196630
3262.000000	85.241356
3260.000000	85.284027
3258.000000	85.325024
3256.000000	85.366047
3254.000000	85.413665
3252.000000	85.468240
3250.000000	85.517931
3248.000000	85.560177
3246.000000	85.601967
3244.000000	85.654425
3242.000000	85.711854
3240.000000	85.764976
3238.000000	85.813580
3236.000000	85.857888
3234.000000	85.898618
3232.000000	85.948033
3230.000000	86.006313
3228.000000	86.062365
3226.000000	86.114807
3224.000000	86.164770
3222.000000	86.210536
3220.000000	86.256519
3218.000000	86.307164
3216.000000	86.356467
3214.000000	86.404146
3212.000000	86.455512
3210.000000	86.509062
3208.000000	86.569221
3206.000000	86.635122
3204.000000	86.703051
3202.000000	86.771083
3200.000000	86.839115
3198.000000	86.909173
3196.000000	86.985215
3194.000000	87.063221
3192.000000	87.137768
3190.000000	87.209527
3188.000000	87.280661
3186.000000	87.349225
3184.000000	87.420387
3182.000000	87.493585
3180.000000	87.561553
3178.000000	87.629849
3176.000000	87.706519
3174.000000	87.783921
3172.000000	87.857730
3170.000000	87.929731
3168.000000	88.004488
3166.000000	88.081171
3164.000000	88.157573
3162.000000	88.234446
3160.000000	88.314631
3158.000000	88.394567
3156.000000	88.470256
3154.000000	88.538776
3152.000000	88.611392
3150.000000	88.697188
3148.000000	88.783601
3146.000000	88.862507
3144.000000	88.937534
3142.000000	89.009465
3140.000000	89.080114
3138.000000	89.151631
3136.000000	89.222656
3134.000000	89.289344
3132.000000	89.357978
3130.000000	89.426756
3128.000000	89.490780
3126.000000	89.552071
3124.000000	89.609585
3122.000000	89.660286
3120.000000	89.708108
3118.000000	89.757448
3116.000000	89.813426
3114.000000	89.879493
3112.000000	89.944620
3110.000000	89.996841
3108.000000	90.047986
3106.000000	90.108428
3104.000000	90.169459
3102.000000	90.226707
3100.000000	90.290106
3098.000000	90.356759
3096.000000	90.423389
3094.000000	90.491730
3092.000000	90.558136
3090.000000	90.618706
3088.000000	90.676754
3086.000000	90.729695
3084.000000	90.776464
3082.000000	90.816670
3080.000000	90.852621
3078.000000	90.893000
3076.000000	90.939015
3074.000000	90.973888
3072.000000	90.993950
3070.000000	91.002996
3068.000000	91.007447
3066.000000	91.022891
3064.000000	91.061128
3062.000000	91.113526
3060.000000	91.169073
3058.000000	91.223749
3056.000000	91.285886
3054.000000	91.352766
3052.000000	91.411114
3050.000000	91.459556
3048.000000	91.509329
3046.000000	91.553477
3044.000000	91.583876
3042.000000	91.607878
3040.000000	91.635260
3038.000000	91.657578
3036.000000	91.666697
3034.000000	91.664426
3032.000000	91.653813
3030.000000	91.626539
3028.000000	91.564330
3026.000000	91.457586
3024.000000	91.328211
3022.000000	91.211882
3020.000000	91.147646
3018.000000	91.173161
3016.000000	91.311577
3014.000000	91.545331
3012.000000	91.831145
3010.000000	92.112591
3008.000000	92.344642
3006.000000	92.509208
3004.000000	92.623067
3002.000000	92.705375
3000.000000	92.764608
2998.000000	92.804610
2996.000000	92.833036
2994.000000	92.853399
2992.000000	92.866689
2990.000000	92.869530
2988.000000	92.857466
2986.000000	92.824400
2984.000000	92.766737
2982.000000	92.679180
2980.000000	92.558667
2978.000000	92.394715
2976.000000	92.170125
2974.000000	91.866922
2972.000000	91.474928
2970.000000	90.994428
2968.000000	90.469950
2966.000000	89.985015
2964.000000	89.628406
2962.000000	89.455262
2960.000000	89.467478
2958.000000	89.610215
2956.000000	89.806312
2954.000000	89.993500
2952.000000	90.139111
2950.000000	90.212073
2948.000000	90.179077
2946.000000	90.017309
2944.000000	89.725347
2942.000000	89.317198
2940.000000	88.827737
2938.000000	88.315955
2936.000000	87.844257
2934.000000	87.424970
2932.000000	87.028719
2930.000000	86.639177
2928.000000	86.310811
2926.000000	86.147232
2924.000000	86.254126
2922.000000	86.673229
2920.000000	87.348044
2918.000000	88.163079
2916.000000	89.013425
2914.000000	89.813753
2912.000000	90.506834
2910.000000	91.063730
2908.000000	91.497474
2906.000000	91.847477
2904.000000	92.150350
2902.000000	92.425715
2900.000000	92.682469
2898.000000	92.922412
2896.000000	93.149129
2894.000000	93.365530
2892.000000	93.570886
2890.000000	93.758372
2888.000000	93.921715
2886.000000	94.050964
2884.000000	94.140739
2882.000000	94.184884
2880.000000	94.182825
2878.000000	94.130245
2876.000000	94.020072
2874.000000	93.841781
2872.000000	93.588879
2870.000000	93.232692
2868.000000	92.749321
2866.000000	92.176192
2864.000000	91.635488
2862.000000	91.280885
2860.000000	91.205453
2858.000000	91.373482
2856.000000	91.675612
2854.000000	92.031557
2852.000000	92.442861
2850.000000	92.948568
2848.000000	93.552419
2846.000000	94.173551
2844.000000	94.718035
2842.000000	95.152702
2840.000000	95.492035
2838.000000	95.761178
2836.000000	95.984247
2834.000000	96.169237
2832.000000	96.325599
2830.000000	96.460317
2828.000000	96.582335
2826.000000	96.693944
2824.000000	96.797591
2822.000000	96.893150
2820.000000	96.980666
2818.000000	97.058396
2816.000000	97.129583
2814.000000	97.193207
2812.000000	97.252289
2810.000000	97.306310
2808.000000	97.358000
2806.000000	97.406713
2804.000000	97.453089
2802.000000	97.497336
2800.000000	97.541189
2798.000000	97.582902
2796.000000	97.624236
2794.000000	97.665751
2792.000000	97.713735
2790.000000	97.770637
2788.000000	97.841573
2786.000000	97.923211
2784.000000	98.008700
2782.000000	98.089982
2780.000000	98.166306
2778.000000	98.234662
2776.000000	98.296167
2774.000000	98.353826
2772.000000	98.410322
2770.000000	98.463957
2768.000000	98.515694
2766.000000	98.563595
2764.000000	98.611675
2762.000000	98.658364
2760.000000	98.704331
2758.000000	98.748179
2756.000000	98.792484
2754.000000	98.834975
2752.000000	98.876473
2750.000000	98.915588
2748.000000	98.954046
2746.000000	98.989629
2744.000000	99.025416
2742.000000	99.060355
2740.000000	99.096152
2738.000000	99.131121
2736.000000	99.166409
2734.000000	99.199955
2732.000000	99.234464
2730.000000	99.267184
2728.000000	99.300413
2726.000000	99.332809
2724.000000	99.366457
2722.000000	99.399333
2720.000000	99.432565
2718.000000	99.463660
2716.000000	99.493268
2714.000000	99.520947
2712.000000	99.548216
2710.000000	99.572064
2708.000000	99.595406
2706.000000	99.619863
2704.000000	99.651000
2702.000000	99.687543
2700.000000	99.730599
2698.000000	99.777572
2696.000000	99.827130
2694.000000	99.873169
2692.000000	99.916197
2690.000000	99.957505
2688.000000	99.999992
2686.000000	100.040241
2684.000000	100.079491
2682.000000	100.116378
2680.000000	100.152409
2678.000000	100.186382
2676.000000	100.220777
2674.000000	100.251599
2672.000000	100.282652
2670.000000	100.313642
2668.000000	100.343965
2666.000000	100.372311
2664.000000	100.402766
2662.000000	100.431417
2660.000000	100.460982
2658.000000	100.491273
2656.000000	100.525104
2654.000000	100.561076
2652.000000	100.600501
2650.000000	100.640487
2648.000000	100.682389
2646.000000	100.721177
2644.000000	100.757636
2642.000000	100.794075
2640.000000	100.832150
2638.000000	100.866404
2636.000000	100.900009
2634.000000	100.931813
2632.000000	100.964468
2630.000000	100.993852
2628.000000	101.022483
2626.000000	101.050597
2624.000000	101.079248
2622.000000	101.107593
2620.000000	101.136748
2618.000000	101.163927
2616.000000	101.191392
2614.000000	101.215663
2612.000000	101.239327
2610.000000	101.260091
2608.000000	101.280413
2606.000000	101.298229
2604.000000	101.314152
2602.000000	101.326716
2600.000000	101.337875
2598.000000	101.345347
2596.000000	101.355235
2594.000000	101.369925
2592.000000	101.393582
2590.000000	101.426016
2588.000000	101.469737
2586.000000	101.521407
2584.000000	101.580615
2582.000000	101.641544
2580.000000	101.704777
2578.000000	101.762729
2576.000000	101.815134
2574.000000	101.862334
2572.000000	101.905981
2570.000000	101.945108
2568.000000	101.983020
2566.000000	102.017327
2564.000000	102.051658
2562.000000	102.082139
2560.000000	102.110934
2558.000000	102.139147
2556.000000	102.167998
2554.000000	102.193722
2552.000000	102.220506
2550.000000	102.245092
2548.000000	102.270503
2546.000000	102.295649
2544.000000	102.322259
2542.000000	102.348639
2540.000000	102.376424
2538.000000	102.402440
2536.000000	102.429579
2534.000000	102.454623
2532.000000	102.480574
2530.000000	102.505448
2528.000000	102.531370
2526.000000	102.556418
2524.000000	102.583140
2522.000000	102.606878
2520.000000	102.631072
2518.000000	102.654173
2516.000000	102.677876
2514.000000	102.700180
2512.000000	102.723515
2510.000000	102.744979
2508.000000	102.766751
2506.000000	102.785356
2504.000000	102.806250
2502.000000	102.827838
2500.000000	102.851430
2498.000000	102.876284
2496.000000	102.903624
2494.000000	102.928469
2492.000000	102.954337
2490.000000	102.978832
2488.000000	103.004189
2486.000000	103.028976
2484.000000	103.056830
2482.000000	103.083060
2480.000000	103.109274
2478.000000	103.132172
2476.000000	103.154821
2474.000000	103.175117
2472.000000	103.195776
2470.000000	103.215090
2468.000000	103.234863
2466.000000	103.250274
2464.000000	103.266022
2462.000000	103.281711
2460.000000	103.298697
2458.000000	103.313924
2456.000000	103.330752
2454.000000	103.346514
2452.000000	103.364210
2450.000000	103.380619
2448.000000	103.397547
2446.000000	103.413107
2444.000000	103.429760
2442.000000	103.443371
2440.000000	103.458341
2438.000000	103.472319
2436.000000	103.487120
2434.000000	103.500679
2432.000000	103.515159
2430.000000	103.525782
2428.000000	103.536169
2426.000000	103.548571
2424.000000	103.565979
2422.000000	103.580876
2420.000000	103.595966
2418.000000	103.608571
2416.000000	103.620271
2414.000000	103.629388
2412.000000	103.641083
2410.000000	103.652088
2408.000000	103.665527
2406.000000	103.679574
2404.000000	103.695922
2402.000000	103.709120
2400.000000	103.724387
2398.000000	103.741332
2396.000000	103.760229
2394.000000	103.775846
2392.000000	103.792213
2390.000000	103.807218
2388.000000	103.821257
2386.000000	103.825469
2384.000000	103.816232
2382.000000	103.780238
2380.000000	103.710895
2378.000000	103.597520
2376.000000	103.438517
2374.000000	103.231498
2372.000000	102.989533
2370.000000	102.730943
2368.000000	102.485983
2366.000000	102.282148
2364.000000	102.149345
2362.000000	102.103911
2360.000000	102.158310
2358.000000	102.313120
2356.000000	102.566104
2354.000000	102.894255
2352.000000	103.261219
2350.000000	103.527733
2348.000000	103.513130
2346.000000	103.274328
2344.000000	103.023034
2342.000000	102.839647
2340.000000	102.734398
2338.000000	102.688179
2336.000000	102.686463
2334.000000	102.717964
2332.000000	102.781643
2330.000000	102.870448
2328.000000	102.982835
2326.000000	103.103445
2324.000000	103.229706
2322.000000	103.353265
2320.000000	103.472845
2318.000000	103.582374
2316.000000	103.681048
2314.000000	103.764646
2312.000000	103.839017
2310.000000	103.901400
2308.000000	103.955404
2306.000000	103.997187
2304.000000	104.032474
2302.000000	104.060692
2300.000000	104.087237
2298.000000	104.108981
2296.000000	104.127989
2294.000000	104.141727
2292.000000	104.157009
2290.000000	104.168482
2288.000000	104.180585
2286.000000	104.188524
2284.000000	104.194819
2282.000000	104.194871
2280.000000	104.193298
2278.000000	104.187610
2276.000000	104.183311
2274.000000	104.176774
2272.000000	104.171788
2270.000000	104.165105
2268.000000	104.160650
2266.000000	104.153735
2264.000000	104.149807
2262.000000	104.145193
2260.000000	104.144228
2258.000000	104.143549
2256.000000	104.145261
2254.000000	104.145083
2252.000000	104.149766
2250.000000	104.155387
2248.000000	104.163817
2246.000000	104.171672
2244.000000	104.183296
2242.000000	104.193188
2240.000000	104.205362
2238.000000	104.217874
2236.000000	104.234120
2234.000000	104.247647
2232.000000	104.261913
2230.000000	104.273552
2228.000000	104.287320
2226.000000	104.297927
2224.000000	104.307394
2222.000000	104.314400
2220.000000	104.324230
2218.000000	104.330485
2216.000000	104.338074
2214.000000	104.341934
2212.000000	104.346633
2210.000000	104.350150
2208.000000	104.356952
2206.000000	104.359971
2204.000000	104.364867
2202.000000	104.368014
2200.000000	104.372534
2198.000000	104.374461
2196.000000	104.378404
2194.000000	104.378996
2192.000000	104.381778
2190.000000	104.381365
2188.000000	104.381822
2186.000000	104.380274
2184.000000	104.381757
2182.000000	104.379457
2180.000000	104.378000
2178.000000	104.375210
2176.000000	104.373995
2174.000000	104.364846
2172.000000	104.342177
2170.000000	104.316875
2168.000000	104.328369
2166.000000	104.349680
2164.000000	104.358341
2162.000000	104.357507
2160.000000	104.356938
2158.000000	104.354387
2156.000000	104.355753
2154.000000	104.353375
2152.000000	104.351962
2150.000000	104.348108
2148.000000	104.347989
2146.000000	104.346475
2144.000000	104.347694
2142.000000	104.343768
2140.000000	104.340103
2138.000000	104.334227
2136.000000	104.333522
2134.000000	104.334220
2132.000000	104.336229
2130.000000	104.333537
2128.000000	104.333103
2126.000000	104.332202
2124.000000	104.333232
2122.000000	104.332722
2120.000000	104.334515
2118.000000	104.335690
2116.000000	104.338543
2114.000000	104.343851
2112.000000	104.356052
2110.000000	104.366717
2108.000000	104.379394
2106.000000	104.390873
2104.000000	104.404758
2102.000000	104.414833
2100.000000	104.427497
2098.000000	104.437625
2096.000000	104.450138
2094.000000	104.460311
2092.000000	104.472040
2090.000000	104.480561
2088.000000	104.499043
2086.000000	104.515395
2084.000000	104.534499
2082.000000	104.548764
2080.000000	104.565252
2078.000000	104.577864
2076.000000	104.597167
2074.000000	104.611752
2072.000000	104.631081
2070.000000	104.647561
2068.000000	104.660278
2066.000000	104.663629
2064.000000	104.687746
2062.000000	104.719915
2060.000000	104.746592
2058.000000	104.767233
2056.000000	104.790665
2054.000000	104.809320
2052.000000	104.830068
2050.000000	104.849177
2048.000000	104.871759
2046.000000	104.888054
2044.000000	104.900195
2042.000000	104.906074
2040.000000	104.929603
2038.000000	104.952768
2036.000000	104.968809
2034.000000	104.976171
2032.000000	104.976683
2030.000000	104.957803
2028.000000	104.965940
2026.000000	105.000295
2024.000000	105.024845
2022.000000	105.032558
2020.000000	105.027875
2018.000000	105.010905
2016.000000	105.035852
2014.000000	105.083395
2012.000000	105.114068
2010.000000	105.127103
2008.000000	105.141077
2006.000000	105.153830
2004.000000	105.166855
2002.000000	105.171436
2000.000000	105.175985
1998.000000	105.180987
1996.000000	105.179563
1994.000000	105.124742
1992.000000	105.078828
1990.000000	105.114933
1988.000000	105.154992
1986.000000	105.169276
1984.000000	105.172488
1982.000000	105.162392
1980.000000	105.150568
1978.000000	105.134106
1976.000000	105.120070
1974.000000	105.103727
1972.000000	105.085977
1970.000000	105.041366
1968.000000	104.973399
1966.000000	104.956624
1964.000000	104.973163
1962.000000	104.920919
1960.000000	104.801106
1958.000000	104.768855
1956.000000	104.847774
1954.000000	104.875649
1952.000000	104.859047
1950.000000	104.824716
1948.000000	104.797220
1946.000000	104.740336
1944.000000	104.626989
1942.000000	104.582485
1940.000000	104.674544
1938.000000	104.705834
1936.000000	104.686186
1934.000000	104.655194
1932.000000	104.631957
1930.000000	104.603236
1928.000000	104.576613
1926.000000	104.510804
1924.000000	104.398510
1922.000000	104.337251
1920.000000	104.223946
1918.000000	104.074322
1916.000000	104.197290
1914.000000	104.286862
1912.000000	104.225302
1910.000000	104.123180
1908.000000	104.087497
1906.000000	104.068244
1904.000000	104.033214
1902.000000	103.979852
1900.000000	103.935669
1898.000000	103.865689
1896.000000	103.788344
1894.000000	103.753710
1892.000000	103.693857
1890.000000	103.562495
1888.000000	103.612918
1886.000000	103.692011
1884.000000	103.696324
1882.000000	103.680340
1880.000000	103.664170
1878.000000	103.634073
1876.000000	103.615391
1874.000000	103.575010
1872.000000	103.404082
1870.000000	103.055463
1868.000000	103.019758
1866.000000	103.271835
1864.000000	103.404855
1862.000000	103.391348
1860.000000	103.359094
1858.000000	103.326020
1856.000000	103.308143
1854.000000	103.270145
1852.000000	103.230619
1850.000000	103.142786
1848.000000	102.968503
1846.000000	102.479820
1844.000000	102.182017
1842.000000	102.607413
1840.000000	102.899220
1838.000000	102.848762
1836.000000	102.800295
1834.000000	102.727497
1832.000000	102.428848
1830.000000	102.125542
1828.000000	102.198315
1826.000000	102.163978
1824.000000	102.188279
1822.000000	102.334520
1820.000000	102.324291
1818.000000	102.229955
1816.000000	102.171260
1814.000000	102.074322
1812.000000	101.886597
1810.000000	101.771714
1808.000000	101.777700
1806.000000	101.723817
1804.000000	101.533097
1802.000000	101.229125
1800.000000	101.089058
1798.000000	101.117413
1796.000000	100.982990
1794.000000	100.390491
1792.000000	100.067752
1790.000000	100.451943
1788.000000	100.666729
1786.000000	100.444113
1784.000000	100.298992
1782.000000	100.213519
1780.000000	100.115019
1778.000000	100.074767
1776.000000	99.766326
1774.000000	98.917682
1772.000000	98.497959
1770.000000	98.908066
1768.000000	99.146445
1766.000000	99.388514
1764.000000	99.232091
1762.000000	98.840517
1760.000000	98.893499
1758.000000	98.824994
1756.000000	98.695816
1754.000000	98.481219
1752.000000	97.740104
1750.000000	97.506009
1748.000000	97.756199
1746.000000	97.851689
1744.000000	97.713815
1742.000000	97.356637
1740.000000	97.006719
1738.000000	96.984349
1736.000000	96.054579
1734.000000	95.098566
1732.000000	96.015056
1730.000000	96.894536
1728.000000	97.122477
1726.000000	97.128061
1724.000000	97.026622
1722.000000	96.844126
1720.000000	95.946799
1718.000000	94.698766
1716.000000	94.944662
1714.000000	95.883747
1712.000000	96.357781
1710.000000	96.315560
1708.000000	95.973647
1706.000000	95.548220
1704.000000	95.321183
1702.000000	94.154415
1700.000000	93.285892
1698.000000	93.617326
1696.000000	93.530393
1694.000000	94.631620
1692.000000	95.606350
1690.000000	95.545814
1688.000000	95.060210
1686.000000	93.471892
1684.000000	92.863887
1682.000000	94.297305
1680.000000	95.132013
1678.000000	94.959925
1676.000000	94.281307
1674.000000	94.284167
1672.000000	94.357142
1670.000000	93.938244
1668.000000	94.204529
1666.000000	94.597590
1664.000000	94.264033
1662.000000	94.099418
1660.000000	94.374269
1658.000000	94.284083
1656.000000	92.965503
1654.000000	90.501059
1652.000000	90.688801
1650.000000	92.645969
1648.000000	92.525471
1646.000000	92.175451
1644.000000	92.926335
1642.000000	93.370071
1640.000000	93.131114
1638.000000	92.225437
1636.000000	91.162706
1634.000000	91.646773
1632.000000	92.442705
1630.000000	92.286116
1628.000000	91.862352
1626.000000	91.440233
1624.000000	90.803861
1622.000000	90.505654
1620.000000	90.145570
1618.000000	88.891361
1616.000000	88.353131
1614.000000	88.806928
1612.000000	88.516657
1610.000000	87.880058
1608.000000	87.557035
1606.000000	87.606678
1604.000000	87.803606
1602.000000	88.050086
1600.000000	88.295978
1598.000000	88.503399
1596.000000	88.640627
1594.000000	88.755558
1592.000000	88.831320
1590.000000	88.841047
1588.000000	88.808003
1586.000000	88.743575
1584.000000	88.667315
1582.000000	88.613086
1580.000000	88.429591
1578.000000	87.460480
1576.000000	86.772858
1574.000000	87.666527
1572.000000	87.957278
1570.000000	87.453869
1568.000000	87.540092
1566.000000	87.650508
1564.000000	87.332245
1562.000000	86.019379
1560.000000	83.847314
1558.000000	83.879439
1556.000000	85.435069
1554.000000	86.287784
1552.000000	86.934917
1550.000000	87.292425
1548.000000	87.479128
1546.000000	87.276338
1544.000000	86.767276
1542.000000	85.883247
1540.000000	85.389852
1538.000000	86.781732
1536.000000	88.162018
1534.000000	88.171126
1532.000000	88.517973
1530.000000	88.878836
1528.000000	88.657708
1526.000000	88.315180
1524.000000	87.889463
1522.000000	87.088007
1520.000000	87.242423
1518.000000	87.700486
1516.000000	87.731900
1514.000000	87.767307
1512.000000	87.560282
1510.000000	86.931904
1508.000000	85.333261
1506.000000	84.568815
1504.000000	85.306294
1502.000000	84.781200
1500.000000	82.254481
1498.000000	78.806574
1496.000000	76.288827
1494.000000	76.081908
1492.000000	77.168654
1490.000000	78.814201
1488.000000	80.805545
1486.000000	82.515072
1484.000000	83.638796
1482.000000	84.151113
1480.000000	84.385564
1478.000000	84.250903
1476.000000	83.770079
1474.000000	83.060589
1472.000000	82.887013
1470.000000	83.391427
1468.000000	83.343791
1466.000000	82.643555
1464.000000	82.251516
1462.000000	82.082011
1460.000000	80.977097
1458.000000	78.953224
1456.000000	77.966222
1454.000000	78.040940
1452.000000	77.724794
1450.000000	77.778178
1448.000000	78.564893
1446.000000	79.598469
1444.000000	80.139774
1442.000000	80.266708
1440.000000	80.104228
1438.000000	79.499503
1436.000000	79.418525
1434.000000	80.093970
1432.000000	80.244353
1430.000000	80.157211
1428.000000	80.220592
1426.000000	80.241135
1424.000000	80.102515
1422.000000	79.789360
1420.000000	79.068229
1418.000000	79.057395
1416.000000	79.450265
1414.000000	79.416698
1412.000000	79.068100
1410.000000	78.546936
1408.000000	77.783855
1406.000000	76.922487
1404.000000	76.452249
1402.000000	76.484653
1400.000000	76.635755
1398.000000	77.034624
1396.000000	77.379845
1394.000000	77.716408
1392.000000	78.163088
1390.000000	78.171536
1388.000000	77.762043
1386.000000	77.527440
1384.000000	77.526646
1382.000000	77.650239
1380.000000	77.741035
1378.000000	77.674351
1376.000000	77.474210
1374.000000	77.309714
1372.000000	77.323901
1370.000000	77.260456
1368.000000	77.108152
1366.000000	76.943190
1364.000000	76.653487
1362.000000	76.447342
1360.000000	76.411349
1358.000000	76.323794
1356.000000	76.133664
1354.000000	75.931149
1352.000000	75.729825
1350.000000	75.513705
1348.000000	75.295479
1346.000000	75.072411
1344.000000	74.823332
1342.000000	74.522003
1340.000000	74.226857
1338.000000	74.098752
1336.000000	74.063334
1334.000000	73.993009
1332.000000	73.848151
1330.000000	73.657898
1328.000000	73.437524
1326.000000	73.197782
1324.000000	72.934053
1322.000000	72.646487
1320.000000	72.328726
1318.000000	72.027719
1316.000000	71.737993
1314.000000	71.431979
1312.000000	71.125593
1310.000000	70.821813
1308.000000	70.496072
1306.000000	70.167791
1304.000000	69.830089
1302.000000	69.488796
1300.000000	69.145393
1298.000000	68.801200
1296.000000	68.446253
1294.000000	68.082816
1292.000000	67.698832
1290.000000	67.303266
1288.000000	66.901716
1286.000000	66.506748
1284.000000	66.096630
1282.000000	65.666007
1280.000000	65.209352
1278.000000	64.724949
1276.000000	64.187110
1274.000000	63.572125
1272.000000	62.843013
1270.000000	61.961646
1268.000000	60.857966
1266.000000	59.537425
1264.000000	58.164034
1262.000000	57.058964
1260.000000	56.503241
1258.000000	56.511417
1256.000000	56.805132
1254.000000	57.054642
1252.000000	57.057388
1250.000000	56.819409
1248.000000	56.426915
1246.000000	55.957627
1244.000000	55.449699
1242.000000	54.935229
1240.000000	54.425020
1238.000000	53.934852
1236.000000	53.458403
1234.000000	52.995884
1232.000000	52.543029
1230.000000	52.099656
1228.000000	51.654678
1226.000000	51.205217
1224.000000	50.744295
1222.000000	50.274483
1220.000000	49.782974
1218.000000	49.272506
1216.000000	48.750279
1214.000000	48.236324
1212.000000	47.745074
1210.000000	47.293070
1208.000000	46.875810
1206.000000	46.480276
1204.000000	46.083334
1202.000000	45.684514
1200.000000	45.290055
1198.000000	44.905369
1196.000000	44.514796
1194.000000	44.111539
1192.000000	43.692226
1190.000000	43.264652
1188.000000	42.824954
1186.000000	42.354698
1184.000000	41.770252
1182.000000	41.043275
1180.000000	40.477078
1178.000000	40.229765
1176.000000	39.998799
1174.000000	39.644503
1172.000000	39.218068
1170.000000	38.769902
1168.000000	38.304662
1166.000000	37.831224
1164.000000	37.358508
1162.000000	36.897756
1160.000000	36.443492
1158.000000	36.008607
1156.000000	35.587382
1154.000000	35.171000
1152.000000	34.746209
1150.000000	34.325256
1148.000000	33.894963
1146.000000	33.457249
1144.000000	33.028030
1142.000000	32.650727
1140.000000	32.340476
1138.000000	32.028849
1136.000000	31.669000
1134.000000	31.277141
1132.000000	30.861981
1130.000000	30.436700
1128.000000	30.015242
1126.000000	29.597441
1124.000000	29.167151
1122.000000	28.728623
1120.000000	28.280115
1118.000000	27.824815
1116.000000	27.360519
1114.000000	26.893767
1112.000000	26.422241
1110.000000	25.958529
1108.000000	25.504438
1106.000000	25.068237
1104.000000	24.650652
1102.000000	24.240839
1100.000000	23.828587
1098.000000	23.422713
1096.000000	23.025663
1094.000000	22.643309
1092.000000	22.276255
1090.000000	21.926014
1088.000000	21.582749
1086.000000	21.246700
1084.000000	20.900343
1082.000000	20.542840
1080.000000	20.204249
1078.000000	19.901169
1076.000000	19.624304
1074.000000	19.392685
1072.000000	19.179741
1070.000000	18.956284
1068.000000	18.724491
1066.000000	18.494743
1064.000000	18.263448
1062.000000	18.031215
1060.000000	17.784475
1058.000000	17.498181
1056.000000	17.109987
1054.000000	16.597582
1052.000000	16.087601
1050.000000	15.788023
1048.000000	15.756573
1046.000000	15.839747
1044.000000	15.841126
1042.000000	15.726785
1040.000000	15.543823
1038.000000	15.332107
1036.000000	15.103757
1034.000000	14.864346
1032.000000	14.615257
1030.000000	14.360563
1028.000000	14.094889
1026.000000	13.824940
1024.000000	13.551827
1022.000000	13.282889
1020.000000	13.027154
1018.000000	12.793280
1016.000000	12.579647
1014.000000	12.391795
1012.000000	12.222591
1010.000000	12.064589
1008.000000	11.900545
1006.000000	11.722014
1004.000000	11.525267
1002.000000	11.314821
1000.000000	11.087337
