PE IR       SUBTECH     SPECTRUM    ASCII       PEDS        4.00        
   -1
TE110A_064_125K_BG.ASC
20/05/14
14:41:07.00
20/05/14
14:41:07.00
Administrator
TE110A.Thursday, May 14 2020, 012.
1000.000000
#HDR
-1
-1
#GR
cm-1
EGY
1.0
0.0
6000.000000
-2.000000
2501
8
105.652710
11.029404
#DATA
6000.000000	16.783056
5998.000000	16.815718
5996.000000	16.848566
5994.000000	16.881604
5992.000000	16.914007
5990.000000	16.947350
5988.000000	16.980988
5986.000000	17.015190
5984.000000	17.049129
5982.000000	17.082798
5980.000000	17.116628
5978.000000	17.150302
5976.000000	17.182853
5974.000000	17.216920
5972.000000	17.250978
5970.000000	17.285405
5968.000000	17.319375
5966.000000	17.353598
5964.000000	17.387872
5962.000000	17.421853
5960.000000	17.456545
5958.000000	17.491662
5956.000000	17.527449
5954.000000	17.562206
5952.000000	17.595974
5950.000000	17.629653
5948.000000	17.663406
5946.000000	17.697288
5944.000000	17.731432
5942.000000	17.765253
5940.000000	17.799308
5938.000000	17.833352
5936.000000	17.867586
5934.000000	17.901563
5932.000000	17.935598
5930.000000	17.970833
5928.000000	18.005901
5926.000000	18.041210
5924.000000	18.075606
5922.000000	18.110919
5920.000000	18.147716
5918.000000	18.184657
5916.000000	18.221592
5914.000000	18.259000
5912.000000	18.295455
5910.000000	18.331830
5908.000000	18.368122
5906.000000	18.405131
5904.000000	18.442509
5902.000000	18.479368
5900.000000	18.515955
5898.000000	18.551543
5896.000000	18.586334
5894.000000	18.622276
5892.000000	18.659936
5890.000000	18.698121
5888.000000	18.735948
5886.000000	18.772482
5884.000000	18.807908
5882.000000	18.842487
5880.000000	18.876293
5878.000000	18.912685
5876.000000	18.950128
5874.000000	18.988982
5872.000000	19.027551
5870.000000	19.065375
5868.000000	19.102042
5866.000000	19.139084
5864.000000	19.176333
5862.000000	19.214816
5860.000000	19.252696
5858.000000	19.290605
5856.000000	19.328343
5854.000000	19.365752
5852.000000	19.403614
5850.000000	19.443162
5848.000000	19.483841
5846.000000	19.524116
5844.000000	19.563457
5842.000000	19.602749
5840.000000	19.643220
5838.000000	19.685004
5836.000000	19.727566
5834.000000	19.771329
5832.000000	19.814302
5830.000000	19.856687
5828.000000	19.898017
5826.000000	19.939076
5824.000000	19.980827
5822.000000	20.023111
5820.000000	20.064882
5818.000000	20.106115
5816.000000	20.146608
5814.000000	20.186586
5812.000000	20.226904
5810.000000	20.267133
5808.000000	20.307626
5806.000000	20.349908
5804.000000	20.392115
5802.000000	20.434119
5800.000000	20.474824
5798.000000	20.516461
5796.000000	20.558297
5794.000000	20.598457
5792.000000	20.637530
5790.000000	20.678279
5788.000000	20.721058
5786.000000	20.764832
5784.000000	20.807120
5782.000000	20.847786
5780.000000	20.887597
5778.000000	20.929144
5776.000000	20.972692
5774.000000	21.017064
5772.000000	21.059796
5770.000000	21.101447
5768.000000	21.142868
5766.000000	21.185150
5764.000000	21.228280
5762.000000	21.270898
5760.000000	21.313227
5758.000000	21.355542
5756.000000	21.397150
5754.000000	21.438755
5752.000000	21.479410
5750.000000	21.521199
5748.000000	21.562915
5746.000000	21.604775
5744.000000	21.646742
5742.000000	21.688841
5740.000000	21.730643
5738.000000	21.771382
5736.000000	21.811651
5734.000000	21.852266
5732.000000	21.893796
5730.000000	21.935882
5728.000000	21.977407
5726.000000	22.017887
5724.000000	22.058558
5722.000000	22.099925
5720.000000	22.141932
5718.000000	22.184527
5716.000000	22.227863
5714.000000	22.273174
5712.000000	22.318577
5710.000000	22.363066
5708.000000	22.406294
5706.000000	22.450374
5704.000000	22.495585
5702.000000	22.540659
5700.000000	22.585643
5698.000000	22.630999
5696.000000	22.676692
5694.000000	22.721871
5692.000000	22.766475
5690.000000	22.812010
5688.000000	22.857686
5686.000000	22.902753
5684.000000	22.947583
5682.000000	22.992845
5680.000000	23.039335
5678.000000	23.086738
5676.000000	23.132421
5674.000000	23.176075
5672.000000	23.219921
5670.000000	23.266466
5668.000000	23.314440
5666.000000	23.360609
5664.000000	23.406038
5662.000000	23.451871
5660.000000	23.497914
5658.000000	23.544249
5656.000000	23.590301
5654.000000	23.637016
5652.000000	23.683048
5650.000000	23.728462
5648.000000	23.774145
5646.000000	23.819679
5644.000000	23.865123
5642.000000	23.910670
5640.000000	23.956833
5638.000000	24.003453
5636.000000	24.049321
5634.000000	24.094262
5632.000000	24.140000
5630.000000	24.186232
5628.000000	24.231132
5626.000000	24.275869
5624.000000	24.321756
5622.000000	24.369070
5620.000000	24.415324
5618.000000	24.460893
5616.000000	24.506915
5614.000000	24.553197
5612.000000	24.599575
5610.000000	24.645783
5608.000000	24.692043
5606.000000	24.738113
5604.000000	24.783246
5602.000000	24.828627
5600.000000	24.873895
5598.000000	24.920688
5596.000000	24.968152
5594.000000	25.015569
5592.000000	25.062487
5590.000000	25.109154
5588.000000	25.155704
5586.000000	25.203169
5584.000000	25.250546
5582.000000	25.298289
5580.000000	25.345357
5578.000000	25.392661
5576.000000	25.440001
5574.000000	25.488000
5572.000000	25.536226
5570.000000	25.584405
5568.000000	25.631600
5566.000000	25.679058
5564.000000	25.727542
5562.000000	25.777708
5560.000000	25.826996
5558.000000	25.875056
5556.000000	25.921728
5554.000000	25.968101
5552.000000	26.015171
5550.000000	26.062695
5548.000000	26.110218
5546.000000	26.158095
5544.000000	26.205689
5542.000000	26.253509
5540.000000	26.300026
5538.000000	26.347226
5536.000000	26.395583
5534.000000	26.446003
5532.000000	26.496231
5530.000000	26.544436
5528.000000	26.590610
5526.000000	26.635719
5524.000000	26.681373
5522.000000	26.728417
5520.000000	26.776595
5518.000000	26.826111
5516.000000	26.875236
5514.000000	26.924045
5512.000000	26.970395
5510.000000	27.014364
5508.000000	27.060425
5506.000000	27.110806
5504.000000	27.163226
5502.000000	27.212895
5500.000000	27.260612
5498.000000	27.306525
5496.000000	27.347713
5494.000000	27.388513
5492.000000	27.433078
5490.000000	27.484701
5488.000000	27.540290
5486.000000	27.596736
5484.000000	27.652425
5482.000000	27.705001
5480.000000	27.748807
5478.000000	27.784814
5476.000000	27.825439
5474.000000	27.879138
5472.000000	27.939258
5470.000000	27.993005
5468.000000	28.040603
5466.000000	28.086071
5464.000000	28.128800
5462.000000	28.174075
5460.000000	28.225778
5458.000000	28.282769
5456.000000	28.340073
5454.000000	28.390917
5452.000000	28.433362
5450.000000	28.468823
5448.000000	28.506294
5446.000000	28.552487
5444.000000	28.602197
5442.000000	28.657340
5440.000000	28.713558
5438.000000	28.764682
5436.000000	28.811344
5434.000000	28.855743
5432.000000	28.899440
5430.000000	28.945140
5428.000000	29.001487
5426.000000	29.069576
5424.000000	29.135021
5422.000000	29.190998
5420.000000	29.238764
5418.000000	29.272848
5416.000000	29.296063
5414.000000	29.325062
5412.000000	29.373920
5410.000000	29.441370
5408.000000	29.510708
5406.000000	29.573580
5404.000000	29.629116
5402.000000	29.681567
5400.000000	29.727994
5398.000000	29.764484
5396.000000	29.798133
5394.000000	29.846121
5392.000000	29.909166
5390.000000	29.969588
5388.000000	30.015323
5386.000000	30.060804
5384.000000	30.117900
5382.000000	30.177005
5380.000000	30.219022
5378.000000	30.254032
5376.000000	30.302372
5374.000000	30.369374
5372.000000	30.438055
5370.000000	30.497669
5368.000000	30.548265
5366.000000	30.594999
5364.000000	30.643428
5362.000000	30.697565
5360.000000	30.752522
5358.000000	30.794569
5356.000000	30.823972
5354.000000	30.860771
5352.000000	30.914412
5350.000000	30.972509
5348.000000	31.012131
5346.000000	31.047350
5344.000000	31.096675
5342.000000	31.149970
5340.000000	31.197245
5338.000000	31.249389
5336.000000	31.317041
5334.000000	31.386101
5332.000000	31.440254
5330.000000	31.485291
5328.000000	31.534146
5326.000000	31.592579
5324.000000	31.657491
5322.000000	31.717651
5320.000000	31.769707
5318.000000	31.819171
5316.000000	31.868879
5314.000000	31.920320
5312.000000	31.968401
5310.000000	32.011353
5308.000000	32.057249
5306.000000	32.110968
5304.000000	32.168084
5302.000000	32.222406
5300.000000	32.276252
5298.000000	32.331745
5296.000000	32.383693
5294.000000	32.426851
5292.000000	32.466976
5290.000000	32.515068
5288.000000	32.571126
5286.000000	32.629281
5284.000000	32.683465
5282.000000	32.737984
5280.000000	32.794594
5278.000000	32.852412
5276.000000	32.908941
5274.000000	32.961399
5272.000000	33.008721
5270.000000	33.053767
5268.000000	33.092481
5266.000000	33.127476
5264.000000	33.170987
5262.000000	33.234403
5260.000000	33.304910
5258.000000	33.359962
5256.000000	33.405471
5254.000000	33.456380
5252.000000	33.507264
5250.000000	33.549307
5248.000000	33.589770
5246.000000	33.644074
5244.000000	33.711314
5242.000000	33.780226
5240.000000	33.844110
5238.000000	33.899549
5236.000000	33.949104
5234.000000	33.995344
5232.000000	34.043183
5230.000000	34.090125
5228.000000	34.131432
5226.000000	34.176809
5224.000000	34.235579
5222.000000	34.301191
5220.000000	34.359413
5218.000000	34.413569
5216.000000	34.469564
5214.000000	34.524004
5212.000000	34.567168
5210.000000	34.598168
5208.000000	34.632879
5206.000000	34.690172
5204.000000	34.765312
5202.000000	34.836589
5200.000000	34.890883
5198.000000	34.940351
5196.000000	34.996520
5194.000000	35.058113
5192.000000	35.114619
5190.000000	35.164463
5188.000000	35.211119
5186.000000	35.262231
5184.000000	35.318651
5182.000000	35.378642
5180.000000	35.437049
5178.000000	35.494396
5176.000000	35.551938
5174.000000	35.607211
5172.000000	35.659542
5170.000000	35.712942
5168.000000	35.767967
5166.000000	35.822089
5164.000000	35.874430
5162.000000	35.928971
5160.000000	35.984459
5158.000000	36.038676
5156.000000	36.093095
5154.000000	36.149373
5152.000000	36.206142
5150.000000	36.262240
5148.000000	36.318256
5146.000000	36.373383
5144.000000	36.426029
5142.000000	36.479024
5140.000000	36.533609
5138.000000	36.590278
5136.000000	36.645156
5134.000000	36.699307
5132.000000	36.753175
5130.000000	36.808291
5128.000000	36.863884
5126.000000	36.918895
5124.000000	36.972486
5122.000000	37.025012
5120.000000	37.077523
5118.000000	37.131415
5116.000000	37.187573
5114.000000	37.245737
5112.000000	37.302448
5110.000000	37.356418
5108.000000	37.409141
5106.000000	37.464431
5104.000000	37.520554
5102.000000	37.576442
5100.000000	37.631773
5098.000000	37.687669
5096.000000	37.743470
5094.000000	37.799932
5092.000000	37.857341
5090.000000	37.915445
5088.000000	37.973320
5086.000000	38.030910
5084.000000	38.087375
5082.000000	38.144259
5080.000000	38.201494
5078.000000	38.258261
5076.000000	38.314342
5074.000000	38.371208
5072.000000	38.428581
5070.000000	38.485317
5068.000000	38.541271
5066.000000	38.597716
5064.000000	38.655098
5062.000000	38.712658
5060.000000	38.768892
5058.000000	38.825231
5056.000000	38.881928
5054.000000	38.938658
5052.000000	38.994092
5050.000000	39.050196
5048.000000	39.107006
5046.000000	39.163261
5044.000000	39.217835
5042.000000	39.273485
5040.000000	39.331041
5038.000000	39.389246
5036.000000	39.445965
5034.000000	39.501514
5032.000000	39.556663
5030.000000	39.612277
5028.000000	39.668195
5026.000000	39.724857
5024.000000	39.781337
5022.000000	39.837355
5020.000000	39.892827
5018.000000	39.949516
5016.000000	40.006207
5014.000000	40.063380
5012.000000	40.121427
5010.000000	40.179968
5008.000000	40.236707
5006.000000	40.293096
5004.000000	40.350235
5002.000000	40.408907
5000.000000	40.467615
4998.000000	40.526516
4996.000000	40.584541
4994.000000	40.641611
4992.000000	40.697827
4990.000000	40.755840
4988.000000	40.815477
4986.000000	40.874789
4984.000000	40.932690
4982.000000	40.991334
4980.000000	41.051166
4978.000000	41.111276
4976.000000	41.169285
4974.000000	41.226525
4972.000000	41.284687
4970.000000	41.343833
4968.000000	41.401101
4966.000000	41.457420
4964.000000	41.514654
4962.000000	41.573331
4960.000000	41.631553
4958.000000	41.689557
4956.000000	41.747356
4954.000000	41.805398
4952.000000	41.862102
4950.000000	41.918348
4948.000000	41.974618
4946.000000	42.031739
4944.000000	42.088985
4942.000000	42.146724
4940.000000	42.203846
4938.000000	42.261140
4936.000000	42.318233
4934.000000	42.374752
4932.000000	42.430272
4930.000000	42.486810
4928.000000	42.544310
4926.000000	42.602605
4924.000000	42.660182
4922.000000	42.717496
4920.000000	42.774328
4918.000000	42.831815
4916.000000	42.889164
4914.000000	42.946993
4912.000000	43.005409
4910.000000	43.064042
4908.000000	43.121351
4906.000000	43.179027
4904.000000	43.238417
4902.000000	43.298827
4900.000000	43.358314
4898.000000	43.417742
4896.000000	43.477864
4894.000000	43.538891
4892.000000	43.599524
4890.000000	43.659144
4888.000000	43.717544
4886.000000	43.776534
4884.000000	43.835398
4882.000000	43.894401
4880.000000	43.953584
4878.000000	44.014439
4876.000000	44.074898
4874.000000	44.134345
4872.000000	44.192479
4870.000000	44.251213
4868.000000	44.309922
4866.000000	44.369356
4864.000000	44.428449
4862.000000	44.487083
4860.000000	44.544309
4858.000000	44.601195
4856.000000	44.658622
4854.000000	44.718257
4852.000000	44.777869
4850.000000	44.835576
4848.000000	44.891830
4846.000000	44.949532
4844.000000	45.007548
4842.000000	45.065652
4840.000000	45.124142
4838.000000	45.182990
4836.000000	45.240455
4834.000000	45.297271
4832.000000	45.354061
4830.000000	45.412455
4828.000000	45.472382
4826.000000	45.532037
4824.000000	45.589362
4822.000000	45.647160
4820.000000	45.706210
4818.000000	45.765276
4816.000000	45.823584
4814.000000	45.881814
4812.000000	45.940612
4810.000000	46.000460
4808.000000	46.059963
4806.000000	46.119966
4804.000000	46.181150
4802.000000	46.242331
4800.000000	46.302564
4798.000000	46.363400
4796.000000	46.423670
4794.000000	46.483836
4792.000000	46.544606
4790.000000	46.606502
4788.000000	46.668020
4786.000000	46.729299
4784.000000	46.788932
4782.000000	46.848199
4780.000000	46.907319
4778.000000	46.966992
4776.000000	47.027141
4774.000000	47.088459
4772.000000	47.148621
4770.000000	47.207709
4768.000000	47.267408
4766.000000	47.328321
4764.000000	47.387720
4762.000000	47.447128
4760.000000	47.507248
4758.000000	47.566791
4756.000000	47.623345
4754.000000	47.679614
4752.000000	47.737374
4750.000000	47.796583
4748.000000	47.856092
4746.000000	47.915774
4744.000000	47.974068
4742.000000	48.031341
4740.000000	48.087968
4738.000000	48.145946
4736.000000	48.205385
4734.000000	48.265176
4732.000000	48.323002
4730.000000	48.380720
4728.000000	48.439161
4726.000000	48.498641
4724.000000	48.558046
4722.000000	48.618011
4720.000000	48.678822
4718.000000	48.741100
4716.000000	48.802933
4714.000000	48.864574
4712.000000	48.925901
4710.000000	48.988213
4708.000000	49.051586
4706.000000	49.115349
4704.000000	49.177495
4702.000000	49.239681
4700.000000	49.302979
4698.000000	49.366064
4696.000000	49.427882
4694.000000	49.490208
4692.000000	49.552410
4690.000000	49.613423
4688.000000	49.673684
4686.000000	49.735510
4684.000000	49.798700
4682.000000	49.862385
4680.000000	49.924414
4678.000000	49.986088
4676.000000	50.047240
4674.000000	50.107816
4672.000000	50.168078
4670.000000	50.231206
4668.000000	50.294792
4666.000000	50.356523
4664.000000	50.416200
4662.000000	50.476231
4660.000000	50.536194
4658.000000	50.597695
4656.000000	50.659840
4654.000000	50.721642
4652.000000	50.781892
4650.000000	50.843382
4648.000000	50.905246
4646.000000	50.966847
4644.000000	51.027393
4642.000000	51.088724
4640.000000	51.149612
4638.000000	51.209990
4636.000000	51.270552
4634.000000	51.332310
4632.000000	51.393591
4630.000000	51.455176
4628.000000	51.516316
4626.000000	51.577462
4624.000000	51.638974
4622.000000	51.701953
4620.000000	51.764673
4618.000000	51.827846
4616.000000	51.890929
4614.000000	51.954689
4612.000000	52.019341
4610.000000	52.085022
4608.000000	52.149440
4606.000000	52.213353
4604.000000	52.276938
4602.000000	52.341180
4600.000000	52.405605
4598.000000	52.471481
4596.000000	52.537296
4594.000000	52.603855
4592.000000	52.670327
4590.000000	52.735633
4588.000000	52.798001
4586.000000	52.861272
4584.000000	52.926125
4582.000000	52.992059
4580.000000	53.056777
4578.000000	53.120840
4576.000000	53.183888
4574.000000	53.248235
4572.000000	53.312839
4570.000000	53.377233
4568.000000	53.440251
4566.000000	53.503420
4564.000000	53.566202
4562.000000	53.628983
4560.000000	53.691535
4558.000000	53.755047
4556.000000	53.819126
4554.000000	53.883959
4552.000000	53.947360
4550.000000	54.009240
4548.000000	54.069900
4546.000000	54.132112
4544.000000	54.196264
4542.000000	54.261067
4540.000000	54.323906
4538.000000	54.386522
4536.000000	54.448503
4534.000000	54.510035
4532.000000	54.571581
4530.000000	54.635313
4528.000000	54.699662
4526.000000	54.763799
4524.000000	54.827740
4522.000000	54.893058
4520.000000	54.957563
4518.000000	55.021489
4516.000000	55.085339
4514.000000	55.150326
4512.000000	55.215843
4510.000000	55.282856
4508.000000	55.349162
4506.000000	55.414044
4504.000000	55.478138
4502.000000	55.544071
4500.000000	55.610066
4498.000000	55.675535
4496.000000	55.741100
4494.000000	55.807565
4492.000000	55.872850
4490.000000	55.938427
4488.000000	56.003801
4486.000000	56.068711
4484.000000	56.133438
4482.000000	56.199121
4480.000000	56.262858
4478.000000	56.325588
4476.000000	56.389197
4474.000000	56.454832
4472.000000	56.519117
4470.000000	56.581613
4468.000000	56.644009
4466.000000	56.708252
4464.000000	56.771426
4462.000000	56.833230
4460.000000	56.894748
4458.000000	56.957839
4456.000000	57.020563
4454.000000	57.081928
4452.000000	57.142014
4450.000000	57.203660
4448.000000	57.266607
4446.000000	57.330121
4444.000000	57.393031
4442.000000	57.456378
4440.000000	57.518252
4438.000000	57.579943
4436.000000	57.643094
4434.000000	57.707531
4432.000000	57.770501
4430.000000	57.833973
4428.000000	57.897000
4426.000000	57.959402
4424.000000	58.022128
4422.000000	58.087623
4420.000000	58.153589
4418.000000	58.217762
4416.000000	58.279738
4414.000000	58.343524
4412.000000	58.408617
4410.000000	58.474205
4408.000000	58.539711
4406.000000	58.604949
4404.000000	58.668709
4402.000000	58.733665
4400.000000	58.798689
4398.000000	58.862274
4396.000000	58.924332
4394.000000	58.987845
4392.000000	59.051993
4390.000000	59.116117
4388.000000	59.178567
4386.000000	59.240546
4384.000000	59.302069
4382.000000	59.363447
4380.000000	59.423327
4378.000000	59.483382
4376.000000	59.543333
4374.000000	59.603900
4372.000000	59.664282
4370.000000	59.725342
4368.000000	59.786419
4366.000000	59.847765
4364.000000	59.908042
4362.000000	59.968833
4360.000000	60.029167
4358.000000	60.089870
4356.000000	60.151516
4354.000000	60.215045
4352.000000	60.277676
4350.000000	60.340879
4348.000000	60.404664
4346.000000	60.468511
4344.000000	60.531580
4342.000000	60.595787
4340.000000	60.659016
4338.000000	60.721837
4336.000000	60.784929
4334.000000	60.849783
4332.000000	60.913953
4330.000000	60.978044
4328.000000	61.042985
4326.000000	61.110098
4324.000000	61.176713
4322.000000	61.243335
4320.000000	61.310478
4318.000000	61.378305
4316.000000	61.444850
4314.000000	61.512447
4312.000000	61.580841
4310.000000	61.649021
4308.000000	61.715732
4306.000000	61.781848
4304.000000	61.847445
4302.000000	61.914687
4300.000000	61.982102
4298.000000	62.048058
4296.000000	62.111855
4294.000000	62.175863
4292.000000	62.240044
4290.000000	62.304432
4288.000000	62.367364
4286.000000	62.429804
4284.000000	62.491712
4282.000000	62.553330
4280.000000	62.612789
4278.000000	62.671771
4276.000000	62.731464
4274.000000	62.791371
4272.000000	62.849926
4270.000000	62.909156
4268.000000	62.968408
4266.000000	63.028890
4264.000000	63.090327
4262.000000	63.152916
4260.000000	63.214980
4258.000000	63.277401
4256.000000	63.340743
4254.000000	63.405363
4252.000000	63.469077
4250.000000	63.533412
4248.000000	63.597051
4246.000000	63.660623
4244.000000	63.723497
4242.000000	63.787302
4240.000000	63.852378
4238.000000	63.918061
4236.000000	63.982911
4234.000000	64.048928
4232.000000	64.113184
4230.000000	64.176586
4228.000000	64.240990
4226.000000	64.306713
4224.000000	64.371141
4222.000000	64.433967
4220.000000	64.495576
4218.000000	64.559881
4216.000000	64.625473
4214.000000	64.691221
4212.000000	64.757428
4210.000000	64.825221
4208.000000	64.891947
4206.000000	64.958895
4204.000000	65.025746
4202.000000	65.092266
4200.000000	65.159108
4198.000000	65.227836
4196.000000	65.296537
4194.000000	65.365844
4192.000000	65.434443
4190.000000	65.503273
4188.000000	65.570827
4186.000000	65.636857
4184.000000	65.702700
4182.000000	65.770427
4180.000000	65.838008
4178.000000	65.904504
4176.000000	65.969180
4174.000000	66.034109
4172.000000	66.097991
4170.000000	66.161918
4168.000000	66.225960
4166.000000	66.289965
4164.000000	66.353735
4162.000000	66.418855
4160.000000	66.483782
4158.000000	66.548198
4156.000000	66.611090
4154.000000	66.674589
4152.000000	66.738999
4150.000000	66.804939
4148.000000	66.871191
4146.000000	66.937437
4144.000000	67.002180
4142.000000	67.066603
4140.000000	67.131461
4138.000000	67.197760
4136.000000	67.263396
4134.000000	67.328815
4132.000000	67.394304
4130.000000	67.460939
4128.000000	67.527368
4126.000000	67.594089
4124.000000	67.660456
4122.000000	67.727485
4120.000000	67.793660
4118.000000	67.858889
4116.000000	67.924859
4114.000000	67.992437
4112.000000	68.057754
4110.000000	68.122153
4108.000000	68.186338
4106.000000	68.251562
4104.000000	68.317391
4102.000000	68.382995
4100.000000	68.446490
4098.000000	68.509610
4096.000000	68.573303
4094.000000	68.638822
4092.000000	68.704128
4090.000000	68.769881
4088.000000	68.838227
4086.000000	68.910353
4084.000000	68.980295
4082.000000	69.047235
4080.000000	69.114570
4078.000000	69.182874
4076.000000	69.248699
4074.000000	69.314262
4072.000000	69.380172
4070.000000	69.446010
4068.000000	69.510945
4066.000000	69.575899
4064.000000	69.639807
4062.000000	69.703795
4060.000000	69.768179
4058.000000	69.834685
4056.000000	69.901230
4054.000000	69.966282
4052.000000	70.030042
4050.000000	70.095003
4048.000000	70.156598
4046.000000	70.215194
4044.000000	70.278996
4042.000000	70.349251
4040.000000	70.418441
4038.000000	70.487237
4036.000000	70.555339
4034.000000	70.622207
4032.000000	70.688063
4030.000000	70.754911
4028.000000	70.820524
4026.000000	70.886486
4024.000000	70.955463
4022.000000	71.024840
4020.000000	71.091655
4018.000000	71.161086
4016.000000	71.232530
4014.000000	71.302557
4012.000000	71.368074
4010.000000	71.431719
4008.000000	71.499667
4006.000000	71.573508
4004.000000	71.645820
4002.000000	71.714559
4000.000000	71.780736
3998.000000	71.844468
3996.000000	71.905353
3994.000000	71.967305
3992.000000	72.030618
3990.000000	72.097908
3988.000000	72.167911
3986.000000	72.234070
3984.000000	72.295039
3982.000000	72.358249
3980.000000	72.422241
3978.000000	72.479731
3976.000000	72.532433
3974.000000	72.591932
3972.000000	72.657563
3970.000000	72.723424
3968.000000	72.788777
3966.000000	72.850329
3964.000000	72.900524
3962.000000	72.952501
3960.000000	73.017688
3958.000000	73.087896
3956.000000	73.152377
3954.000000	73.203311
3952.000000	73.229451
3950.000000	73.251288
3948.000000	73.308427
3946.000000	73.376320
3944.000000	73.420709
3942.000000	73.497509
3940.000000	73.614499
3938.000000	73.708322
3936.000000	73.736544
3934.000000	73.713429
3932.000000	73.738806
3930.000000	73.854816
3928.000000	73.954812
3926.000000	73.995931
3924.000000	74.047358
3922.000000	74.097693
3920.000000	74.091526
3918.000000	74.112318
3916.000000	74.261756
3914.000000	74.461163
3912.000000	74.591669
3910.000000	74.640457
3908.000000	74.550209
3906.000000	74.293348
3904.000000	74.076641
3902.000000	74.086161
3900.000000	74.311165
3898.000000	74.666469
3896.000000	74.923432
3894.000000	74.884719
3892.000000	74.781059
3890.000000	74.855201
3888.000000	74.838308
3886.000000	74.757104
3884.000000	74.902798
3882.000000	75.069714
3880.000000	75.209825
3878.000000	75.396929
3876.000000	75.434168
3874.000000	75.293246
3872.000000	75.028087
3870.000000	74.934143
3868.000000	75.163036
3866.000000	75.343705
3864.000000	75.466408
3862.000000	75.715110
3860.000000	75.919619
3858.000000	75.629056
3856.000000	74.604228
3854.000000	73.892128
3852.000000	74.526488
3850.000000	75.716103
3848.000000	76.366003
3846.000000	76.446414
3844.000000	76.323517
3842.000000	76.096351
3840.000000	75.677111
3838.000000	75.475064
3836.000000	75.841586
3834.000000	76.324147
3832.000000	76.613031
3830.000000	76.828782
3828.000000	76.962121
3826.000000	76.974610
3824.000000	76.737935
3822.000000	76.442861
3820.000000	76.448074
3818.000000	76.427642
3816.000000	76.494309
3814.000000	77.049810
3812.000000	77.536630
3810.000000	77.455586
3808.000000	77.144559
3806.000000	77.109107
3804.000000	77.013153
3802.000000	76.806602
3800.000000	77.104730
3798.000000	77.603449
3796.000000	77.901847
3794.000000	78.142052
3792.000000	78.309736
3790.000000	78.383499
3788.000000	78.407025
3786.000000	78.417439
3784.000000	78.445817
3782.000000	78.429994
3780.000000	78.409703
3778.000000	78.540821
3776.000000	78.729000
3774.000000	78.768022
3772.000000	78.618248
3770.000000	78.513866
3768.000000	78.601090
3766.000000	78.757999
3764.000000	78.900918
3762.000000	78.910009
3760.000000	78.836002
3758.000000	78.877275
3756.000000	78.777889
3754.000000	78.169389
3752.000000	77.503898
3750.000000	77.518313
3748.000000	77.779421
3746.000000	77.548740
3744.000000	77.713169
3742.000000	78.664563
3740.000000	79.164688
3738.000000	78.899412
3736.000000	78.640769
3734.000000	78.756522
3732.000000	79.146122
3730.000000	79.598486
3728.000000	79.793054
3726.000000	79.813611
3724.000000	79.885241
3722.000000	80.011592
3720.000000	80.176327
3718.000000	80.318224
3716.000000	80.249325
3714.000000	79.864853
3712.000000	79.607392
3710.000000	79.866160
3708.000000	80.347666
3706.000000	80.636679
3704.000000	80.636554
3702.000000	80.605847
3700.000000	80.757937
3698.000000	80.934966
3696.000000	80.984795
3694.000000	80.841740
3692.000000	80.406987
3690.000000	79.916935
3688.000000	80.041552
3686.000000	80.735474
3684.000000	81.208677
3682.000000	81.258811
3680.000000	81.011384
3678.000000	80.401626
3676.000000	79.952641
3674.000000	80.121063
3672.000000	80.249084
3670.000000	80.381833
3668.000000	80.964079
3666.000000	81.507554
3664.000000	81.709638
3662.000000	81.742712
3660.000000	81.635477
3658.000000	81.363679
3656.000000	81.260791
3654.000000	81.280282
3652.000000	80.877420
3650.000000	80.407807
3648.000000	80.623581
3646.000000	81.291495
3644.000000	81.761862
3642.000000	81.918935
3640.000000	81.959035
3638.000000	81.964346
3636.000000	81.919320
3634.000000	81.788416
3632.000000	81.358308
3630.000000	80.807218
3628.000000	80.942493
3626.000000	81.599122
3624.000000	81.919687
3622.000000	81.740871
3620.000000	81.477757
3618.000000	81.521469
3616.000000	81.673730
3614.000000	81.655941
3612.000000	81.555187
3610.000000	81.486399
3608.000000	81.606944
3606.000000	81.881593
3604.000000	82.035483
3602.000000	82.025416
3600.000000	81.989604
3598.000000	81.955111
3596.000000	81.908706
3594.000000	81.919485
3592.000000	81.903307
3590.000000	81.697736
3588.000000	81.530072
3586.000000	81.675687
3584.000000	81.927207
3582.000000	82.039340
3580.000000	82.050794
3578.000000	82.046457
3576.000000	82.044460
3574.000000	82.043198
3572.000000	81.979608
3570.000000	81.759773
3568.000000	81.539158
3566.000000	81.589188
3564.000000	81.795791
3562.000000	81.914867
3560.000000	81.952211
3558.000000	81.975396
3556.000000	81.963993
3554.000000	81.912309
3552.000000	81.883591
3550.000000	81.867743
3548.000000	81.797165
3546.000000	81.744646
3544.000000	81.788422
3542.000000	81.860253
3540.000000	81.878798
3538.000000	81.847231
3536.000000	81.820240
3534.000000	81.812761
3532.000000	81.775557
3530.000000	81.702497
3528.000000	81.636828
3526.000000	81.589639
3524.000000	81.554740
3522.000000	81.548437
3520.000000	81.549506
3518.000000	81.532459
3516.000000	81.502880
3514.000000	81.457526
3512.000000	81.391523
3510.000000	81.328586
3508.000000	81.288679
3506.000000	81.228386
3504.000000	81.139680
3502.000000	81.091652
3500.000000	81.076611
3498.000000	81.033735
3496.000000	80.976364
3494.000000	80.931231
3492.000000	80.881802
3490.000000	80.818357
3488.000000	80.758690
3486.000000	80.714396
3484.000000	80.667814
3482.000000	80.626153
3480.000000	80.615147
3478.000000	80.620007
3476.000000	80.619008
3474.000000	80.621351
3472.000000	80.628907
3470.000000	80.632188
3468.000000	80.641949
3466.000000	80.671476
3464.000000	80.708591
3462.000000	80.745172
3460.000000	80.785334
3458.000000	80.825192
3456.000000	80.860871
3454.000000	80.891270
3452.000000	80.911896
3450.000000	80.910708
3448.000000	80.900426
3446.000000	80.925999
3444.000000	80.981386
3442.000000	81.044423
3440.000000	81.121412
3438.000000	81.207812
3436.000000	81.306332
3434.000000	81.428138
3432.000000	81.568050
3430.000000	81.712228
3428.000000	81.856884
3426.000000	81.994729
3424.000000	82.113022
3422.000000	82.214975
3420.000000	82.323999
3418.000000	82.441263
3416.000000	82.543376
3414.000000	82.626168
3412.000000	82.699586
3410.000000	82.765831
3408.000000	82.826788
3406.000000	82.883875
3404.000000	82.932577
3402.000000	82.975368
3400.000000	83.028871
3398.000000	83.104248
3396.000000	83.187646
3394.000000	83.256200
3392.000000	83.320766
3390.000000	83.402664
3388.000000	83.483316
3386.000000	83.545718
3384.000000	83.603986
3382.000000	83.663487
3380.000000	83.718628
3378.000000	83.770287
3376.000000	83.821090
3374.000000	83.868299
3372.000000	83.903810
3370.000000	83.929314
3368.000000	83.965190
3366.000000	84.016822
3364.000000	84.072282
3362.000000	84.122185
3360.000000	84.167600
3358.000000	84.211304
3356.000000	84.253618
3354.000000	84.295361
3352.000000	84.333500
3350.000000	84.373507
3348.000000	84.421941
3346.000000	84.467955
3344.000000	84.507119
3342.000000	84.544471
3340.000000	84.578518
3338.000000	84.610874
3336.000000	84.653570
3334.000000	84.702689
3332.000000	84.746668
3330.000000	84.783304
3328.000000	84.815305
3326.000000	84.847358
3324.000000	84.885475
3322.000000	84.927547
3320.000000	84.967528
3318.000000	85.003994
3316.000000	85.038362
3314.000000	85.070118
3312.000000	85.098492
3310.000000	85.120078
3308.000000	85.140013
3306.000000	85.168545
3304.000000	85.214537
3302.000000	85.268574
3300.000000	85.311451
3298.000000	85.344187
3296.000000	85.375892
3294.000000	85.404444
3292.000000	85.434713
3290.000000	85.477114
3288.000000	85.523018
3286.000000	85.563477
3284.000000	85.602041
3282.000000	85.639576
3280.000000	85.675788
3278.000000	85.709121
3276.000000	85.741113
3274.000000	85.774713
3272.000000	85.812070
3270.000000	85.856786
3268.000000	85.907524
3266.000000	85.954448
3264.000000	85.998469
3262.000000	86.041835
3260.000000	86.084567
3258.000000	86.125940
3256.000000	86.166403
3254.000000	86.212606
3252.000000	86.265831
3250.000000	86.313833
3248.000000	86.354244
3246.000000	86.396381
3244.000000	86.450380
3242.000000	86.507256
3240.000000	86.558683
3238.000000	86.607433
3236.000000	86.651918
3234.000000	86.691840
3232.000000	86.741747
3230.000000	86.800644
3228.000000	86.855488
3226.000000	86.907239
3224.000000	86.956839
3222.000000	87.001165
3220.000000	87.045081
3218.000000	87.093609
3216.000000	87.142691
3214.000000	87.191170
3212.000000	87.241761
3210.000000	87.294568
3208.000000	87.354376
3206.000000	87.418708
3204.000000	87.486118
3202.000000	87.554235
3200.000000	87.621390
3198.000000	87.691215
3196.000000	87.767669
3194.000000	87.845596
3192.000000	87.919891
3190.000000	87.991248
3188.000000	88.061761
3186.000000	88.130747
3184.000000	88.202835
3182.000000	88.274831
3180.000000	88.341911
3178.000000	88.410937
3176.000000	88.487508
3174.000000	88.563662
3172.000000	88.637426
3170.000000	88.710723
3168.000000	88.785113
3166.000000	88.860714
3164.000000	88.937623
3162.000000	89.013964
3160.000000	89.091472
3158.000000	89.170364
3156.000000	89.247439
3154.000000	89.317298
3152.000000	89.389356
3150.000000	89.474088
3148.000000	89.559350
3146.000000	89.637086
3144.000000	89.713053
3142.000000	89.784823
3140.000000	89.853609
3138.000000	89.925429
3136.000000	89.996487
3134.000000	90.061708
3132.000000	90.129904
3130.000000	90.198588
3128.000000	90.263197
3126.000000	90.324473
3124.000000	90.380709
3122.000000	90.429668
3120.000000	90.475864
3118.000000	90.523753
3116.000000	90.579458
3114.000000	90.646130
3112.000000	90.710895
3110.000000	90.762286
3108.000000	90.813906
3106.000000	90.874134
3104.000000	90.933092
3102.000000	90.988449
3100.000000	91.051297
3098.000000	91.117876
3096.000000	91.183928
3094.000000	91.252236
3092.000000	91.317328
3090.000000	91.376228
3088.000000	91.433699
3086.000000	91.484940
3084.000000	91.529737
3082.000000	91.570121
3080.000000	91.606267
3078.000000	91.645529
3076.000000	91.691231
3074.000000	91.725912
3072.000000	91.744270
3070.000000	91.750370
3068.000000	91.752353
3066.000000	91.767309
3064.000000	91.805665
3062.000000	91.857588
3060.000000	91.912680
3058.000000	91.966983
3056.000000	92.027057
3054.000000	92.092327
3052.000000	92.149724
3050.000000	92.199137
3048.000000	92.249597
3046.000000	92.291971
3044.000000	92.321613
3042.000000	92.345676
3040.000000	92.372678
3038.000000	92.393780
3036.000000	92.400785
3034.000000	92.396978
3032.000000	92.385139
3030.000000	92.355343
3028.000000	92.290927
3026.000000	92.182468
3024.000000	92.051665
3022.000000	91.933932
3020.000000	91.869493
3018.000000	91.896750
3016.000000	92.035192
3014.000000	92.267323
3012.000000	92.552525
3010.000000	92.835009
3008.000000	93.068709
3006.000000	93.232958
3004.000000	93.344934
3002.000000	93.425493
3000.000000	93.484205
2998.000000	93.524772
2996.000000	93.554479
2994.000000	93.573784
2992.000000	93.585399
2990.000000	93.587304
2988.000000	93.573137
2986.000000	93.538128
2984.000000	93.478746
2982.000000	93.389123
2980.000000	93.266925
2978.000000	93.101394
2976.000000	92.874937
2974.000000	92.569560
2972.000000	92.173380
2970.000000	91.688247
2968.000000	91.160673
2966.000000	90.673850
2964.000000	90.316139
2962.000000	90.143375
2960.000000	90.157354
2958.000000	90.299352
2956.000000	90.493069
2954.000000	90.677641
2952.000000	90.820780
2950.000000	90.891064
2948.000000	90.854394
2946.000000	90.688300
2944.000000	90.392846
2942.000000	89.980121
2940.000000	89.485153
2938.000000	88.969013
2936.000000	88.493673
2934.000000	88.070970
2932.000000	87.670731
2930.000000	87.276971
2928.000000	86.946376
2926.000000	86.783086
2924.000000	86.890880
2922.000000	87.311560
2920.000000	87.990719
2918.000000	88.810167
2916.000000	89.663730
2914.000000	90.468504
2912.000000	91.165183
2910.000000	91.722108
2908.000000	92.154780
2906.000000	92.504198
2904.000000	92.808544
2902.000000	93.085448
2900.000000	93.343916
2898.000000	93.583559
2896.000000	93.808024
2894.000000	94.023031
2892.000000	94.230162
2890.000000	94.418997
2888.000000	94.581738
2886.000000	94.709765
2884.000000	94.797705
2882.000000	94.839616
2880.000000	94.836231
2878.000000	94.782731
2876.000000	94.670633
2874.000000	94.490361
2872.000000	94.234387
2870.000000	93.874287
2868.000000	93.386502
2866.000000	92.806650
2864.000000	92.259952
2862.000000	91.903525
2860.000000	91.828295
2858.000000	91.997238
2856.000000	92.301790
2854.000000	92.661801
2852.000000	93.075874
2850.000000	93.583308
2848.000000	94.188798
2846.000000	94.811450
2844.000000	95.357059
2842.000000	95.791123
2840.000000	96.131538
2838.000000	96.402921
2836.000000	96.625451
2834.000000	96.808212
2832.000000	96.963849
2830.000000	97.099451
2828.000000	97.221535
2826.000000	97.332821
2824.000000	97.435900
2822.000000	97.528688
2820.000000	97.614226
2818.000000	97.691107
2816.000000	97.761879
2814.000000	97.825329
2812.000000	97.883806
2810.000000	97.937134
2808.000000	97.987461
2806.000000	98.034898
2804.000000	98.081110
2802.000000	98.124696
2800.000000	98.167280
2798.000000	98.207278
2796.000000	98.247984
2794.000000	98.290005
2792.000000	98.336151
2790.000000	98.390125
2788.000000	98.461011
2786.000000	98.543795
2784.000000	98.628454
2782.000000	98.707912
2780.000000	98.783234
2778.000000	98.851796
2776.000000	98.914419
2774.000000	98.970105
2772.000000	99.024075
2770.000000	99.075715
2768.000000	99.126490
2766.000000	99.174566
2764.000000	99.222223
2762.000000	99.268750
2760.000000	99.314999
2758.000000	99.358496
2756.000000	99.402053
2754.000000	99.442333
2752.000000	99.481910
2750.000000	99.520279
2748.000000	99.557661
2746.000000	99.592817
2744.000000	99.627763
2742.000000	99.661749
2740.000000	99.697436
2738.000000	99.731421
2736.000000	99.764496
2734.000000	99.796922
2732.000000	99.830585
2730.000000	99.863835
2728.000000	99.897014
2726.000000	99.928177
2724.000000	99.959833
2722.000000	99.989724
2720.000000	100.021569
2718.000000	100.051616
2716.000000	100.080972
2714.000000	100.108198
2712.000000	100.134166
2710.000000	100.155860
2708.000000	100.178644
2706.000000	100.204749
2704.000000	100.235853
2702.000000	100.270350
2700.000000	100.312761
2698.000000	100.358480
2696.000000	100.406009
2694.000000	100.451526
2692.000000	100.495245
2690.000000	100.535764
2688.000000	100.576358
2686.000000	100.615522
2684.000000	100.655455
2682.000000	100.692133
2680.000000	100.727320
2678.000000	100.759936
2676.000000	100.792605
2674.000000	100.823854
2672.000000	100.854843
2670.000000	100.884236
2668.000000	100.914895
2666.000000	100.943626
2664.000000	100.972114
2662.000000	100.999170
2660.000000	101.027786
2658.000000	101.057007
2656.000000	101.089845
2654.000000	101.125962
2652.000000	101.166017
2650.000000	101.204640
2648.000000	101.243527
2646.000000	101.281045
2644.000000	101.318846
2642.000000	101.354418
2640.000000	101.390650
2638.000000	101.425612
2636.000000	101.460412
2634.000000	101.491691
2632.000000	101.522310
2630.000000	101.551514
2628.000000	101.580834
2626.000000	101.606844
2624.000000	101.634452
2622.000000	101.660870
2620.000000	101.688871
2618.000000	101.716029
2616.000000	101.742321
2614.000000	101.765691
2612.000000	101.789395
2610.000000	101.810377
2608.000000	101.830484
2606.000000	101.847231
2604.000000	101.862276
2602.000000	101.873060
2600.000000	101.882672
2598.000000	101.890887
2596.000000	101.901441
2594.000000	101.914603
2592.000000	101.936693
2590.000000	101.967523
2588.000000	102.010193
2586.000000	102.060944
2584.000000	102.120133
2582.000000	102.182457
2580.000000	102.245598
2578.000000	102.302604
2576.000000	102.355427
2574.000000	102.403067
2572.000000	102.447243
2570.000000	102.484927
2568.000000	102.520726
2566.000000	102.554739
2564.000000	102.588156
2562.000000	102.617812
2560.000000	102.647289
2558.000000	102.674327
2556.000000	102.701912
2554.000000	102.727589
2552.000000	102.753409
2550.000000	102.777486
2548.000000	102.804162
2546.000000	102.829477
2544.000000	102.854190
2542.000000	102.879385
2540.000000	102.907490
2538.000000	102.933280
2536.000000	102.960133
2534.000000	102.986397
2532.000000	103.013468
2530.000000	103.037179
2528.000000	103.062049
2526.000000	103.086523
2524.000000	103.112229
2522.000000	103.134129
2520.000000	103.156956
2518.000000	103.180862
2516.000000	103.205135
2514.000000	103.226768
2512.000000	103.248076
2510.000000	103.267433
2508.000000	103.289542
2506.000000	103.309573
2504.000000	103.330134
2502.000000	103.350961
2500.000000	103.374174
2498.000000	103.397257
2496.000000	103.423942
2494.000000	103.449604
2492.000000	103.474671
2490.000000	103.498477
2488.000000	103.525809
2486.000000	103.551881
2484.000000	103.578486
2482.000000	103.602773
2480.000000	103.627763
2478.000000	103.649185
2476.000000	103.671047
2474.000000	103.692104
2472.000000	103.713711
2470.000000	103.730803
2468.000000	103.748454
2466.000000	103.765454
2464.000000	103.782448
2462.000000	103.796326
2460.000000	103.813013
2458.000000	103.830045
2456.000000	103.848573
2454.000000	103.863378
2452.000000	103.878029
2450.000000	103.891999
2448.000000	103.909572
2446.000000	103.926038
2444.000000	103.943336
2442.000000	103.956656
2440.000000	103.970710
2438.000000	103.985278
2436.000000	104.001609
2434.000000	104.014698
2432.000000	104.027877
2430.000000	104.037358
2428.000000	104.047560
2426.000000	104.059725
2424.000000	104.077508
2422.000000	104.092548
2420.000000	104.105867
2418.000000	104.116822
2416.000000	104.128380
2414.000000	104.138420
2412.000000	104.150655
2410.000000	104.160968
2408.000000	104.172729
2406.000000	104.184517
2404.000000	104.200749
2402.000000	104.215938
2400.000000	104.231752
2398.000000	104.245722
2396.000000	104.263747
2394.000000	104.282518
2392.000000	104.301131
2390.000000	104.315018
2388.000000	104.328343
2386.000000	104.331257
2384.000000	104.318578
2382.000000	104.279940
2380.000000	104.209046
2378.000000	104.093437
2376.000000	103.929887
2374.000000	103.716558
2372.000000	103.469570
2370.000000	103.207557
2368.000000	102.959091
2366.000000	102.750199
2364.000000	102.613456
2362.000000	102.567315
2360.000000	102.625415
2358.000000	102.784828
2356.000000	103.041347
2354.000000	103.375165
2352.000000	103.748912
2350.000000	104.018725
2348.000000	104.003539
2346.000000	103.760155
2344.000000	103.502309
2342.000000	103.314828
2340.000000	103.206469
2338.000000	103.158981
2336.000000	103.158922
2334.000000	103.192397
2332.000000	103.256478
2330.000000	103.346330
2328.000000	103.459592
2326.000000	103.581352
2324.000000	103.709115
2322.000000	103.834618
2320.000000	103.956031
2318.000000	104.065284
2316.000000	104.164899
2314.000000	104.252168
2312.000000	104.330033
2310.000000	104.392989
2308.000000	104.446498
2306.000000	104.488822
2304.000000	104.525681
2302.000000	104.553591
2300.000000	104.578141
2298.000000	104.598303
2296.000000	104.617806
2294.000000	104.633531
2292.000000	104.649642
2290.000000	104.660129
2288.000000	104.671257
2286.000000	104.680958
2284.000000	104.688704
2282.000000	104.688110
2280.000000	104.686268
2278.000000	104.682009
2276.000000	104.677906
2274.000000	104.668849
2272.000000	104.664115
2270.000000	104.658421
2268.000000	104.653954
2266.000000	104.647021
2264.000000	104.641819
2262.000000	104.636996
2260.000000	104.637104
2258.000000	104.635260
2256.000000	104.636401
2254.000000	104.636672
2252.000000	104.640601
2250.000000	104.643619
2248.000000	104.650264
2246.000000	104.659354
2244.000000	104.672956
2242.000000	104.683975
2240.000000	104.697554
2238.000000	104.709078
2236.000000	104.723432
2234.000000	104.736320
2232.000000	104.750389
2230.000000	104.761182
2228.000000	104.773438
2226.000000	104.783599
2224.000000	104.795303
2222.000000	104.803902
2220.000000	104.812861
2218.000000	104.817261
2216.000000	104.824414
2214.000000	104.829599
2212.000000	104.835119
2210.000000	104.838030
2208.000000	104.843649
2206.000000	104.845829
2204.000000	104.851518
2202.000000	104.856291
2200.000000	104.861967
2198.000000	104.862755
2196.000000	104.865255
2194.000000	104.864879
2192.000000	104.868589
2190.000000	104.869312
2188.000000	104.868756
2186.000000	104.865612
2184.000000	104.866418
2182.000000	104.864807
2180.000000	104.865165
2178.000000	104.862771
2176.000000	104.860984
2174.000000	104.851227
2172.000000	104.828628
2170.000000	104.801839
2168.000000	104.812603
2166.000000	104.833697
2164.000000	104.841857
2162.000000	104.839261
2160.000000	104.837926
2158.000000	104.836522
2156.000000	104.838923
2154.000000	104.836449
2152.000000	104.834315
2150.000000	104.829315
2148.000000	104.828881
2146.000000	104.827369
2144.000000	104.828309
2142.000000	104.826133
2140.000000	104.823716
2138.000000	104.817978
2136.000000	104.816975
2134.000000	104.816039
2132.000000	104.816361
2130.000000	104.814224
2128.000000	104.814768
2126.000000	104.811795
2124.000000	104.812046
2122.000000	104.811708
2120.000000	104.814029
2118.000000	104.814906
2116.000000	104.818228
2114.000000	104.823480
2112.000000	104.835518
2110.000000	104.845870
2108.000000	104.859037
2106.000000	104.870078
2104.000000	104.881984
2102.000000	104.890439
2100.000000	104.903746
2098.000000	104.914545
2096.000000	104.928590
2094.000000	104.938562
2092.000000	104.949770
2090.000000	104.959370
2088.000000	104.978051
2086.000000	104.992145
2084.000000	105.009605
2082.000000	105.024354
2080.000000	105.044064
2078.000000	105.057791
2076.000000	105.074291
2074.000000	105.088393
2072.000000	105.108216
2070.000000	105.124600
2068.000000	105.138042
2066.000000	105.141584
2064.000000	105.165367
2062.000000	105.197739
2060.000000	105.224511
2058.000000	105.245181
2056.000000	105.267698
2054.000000	105.286359
2052.000000	105.309220
2050.000000	105.327854
2048.000000	105.348436
2046.000000	105.363951
2044.000000	105.378312
2042.000000	105.384306
2040.000000	105.406476
2038.000000	105.429899
2036.000000	105.445480
2034.000000	105.451328
2032.000000	105.451746
2030.000000	105.434022
2028.000000	105.443679
2026.000000	105.477233
2024.000000	105.500651
2022.000000	105.507535
2020.000000	105.500459
2018.000000	105.482436
2016.000000	105.509262
2014.000000	105.558009
2012.000000	105.588872
2010.000000	105.602752
2008.000000	105.617508
2006.000000	105.629115
2004.000000	105.639942
2002.000000	105.643638
2000.000000	105.648704
1998.000000	105.652710
1996.000000	105.652279
1994.000000	105.596135
1992.000000	105.546699
1990.000000	105.582720
1988.000000	105.624353
1986.000000	105.639720
1984.000000	105.641914
1982.000000	105.630396
1980.000000	105.619603
1978.000000	105.603949
1976.000000	105.589665
1974.000000	105.572397
1972.000000	105.554750
1970.000000	105.508891
1968.000000	105.438141
1966.000000	105.420954
1964.000000	105.439552
1962.000000	105.387855
1960.000000	105.267048
1958.000000	105.234708
1956.000000	105.314533
1954.000000	105.342073
1952.000000	105.325499
1950.000000	105.290631
1948.000000	105.261089
1946.000000	105.201213
1944.000000	105.084563
1942.000000	105.039706
1940.000000	105.136281
1938.000000	105.169112
1936.000000	105.149422
1934.000000	105.117160
1932.000000	105.093614
1930.000000	105.064293
1928.000000	105.036759
1926.000000	104.967727
1924.000000	104.852201
1922.000000	104.789968
1920.000000	104.672392
1918.000000	104.519699
1916.000000	104.650304
1914.000000	104.743188
1912.000000	104.678313
1910.000000	104.573706
1908.000000	104.539600
1906.000000	104.520964
1904.000000	104.484751
1902.000000	104.429617
1900.000000	104.386955
1898.000000	104.316465
1896.000000	104.235440
1894.000000	104.198576
1892.000000	104.137040
1890.000000	104.002973
1888.000000	104.055526
1886.000000	104.136795
1884.000000	104.141151
1882.000000	104.124347
1880.000000	104.109456
1878.000000	104.080132
1876.000000	104.060991
1874.000000	104.017675
1872.000000	103.841302
1870.000000	103.481629
1868.000000	103.445800
1866.000000	103.706950
1864.000000	103.845856
1862.000000	103.832495
1860.000000	103.798807
1858.000000	103.763611
1856.000000	103.744957
1854.000000	103.707855
1852.000000	103.668421
1850.000000	103.578217
1848.000000	103.397498
1846.000000	102.892934
1844.000000	102.589113
1842.000000	103.030363
1840.000000	103.331686
1838.000000	103.280456
1836.000000	103.230018
1834.000000	103.153830
1832.000000	102.846316
1830.000000	102.535787
1828.000000	102.613143
1826.000000	102.578757
1824.000000	102.605844
1822.000000	102.758296
1820.000000	102.749926
1818.000000	102.653638
1816.000000	102.594677
1814.000000	102.495899
1812.000000	102.303682
1810.000000	102.188240
1808.000000	102.196040
1806.000000	102.140194
1804.000000	101.944934
1802.000000	101.631991
1800.000000	101.489365
1798.000000	101.521934
1796.000000	101.385831
1794.000000	100.776879
1792.000000	100.446892
1790.000000	100.846533
1788.000000	101.071908
1786.000000	100.844537
1784.000000	100.697364
1782.000000	100.609631
1780.000000	100.509058
1778.000000	100.471803
1776.000000	100.156081
1774.000000	99.280324
1772.000000	98.848978
1770.000000	99.273062
1768.000000	99.522262
1766.000000	99.777587
1764.000000	99.617585
1762.000000	99.216342
1760.000000	99.276196
1758.000000	99.207080
1756.000000	99.077114
1754.000000	98.857756
1752.000000	98.092949
1750.000000	97.855104
1748.000000	98.119156
1746.000000	98.223703
1744.000000	98.085426
1742.000000	97.718938
1740.000000	97.360757
1738.000000	97.341770
1736.000000	96.381781
1734.000000	95.397200
1732.000000	96.349427
1730.000000	97.258297
1728.000000	97.494689
1726.000000	97.501035
1724.000000	97.396884
1722.000000	97.208673
1720.000000	96.279256
1718.000000	94.991825
1716.000000	95.251520
1714.000000	96.224029
1712.000000	96.716201
1710.000000	96.674722
1708.000000	96.324044
1706.000000	95.885074
1704.000000	95.651795
1702.000000	94.445802
1700.000000	93.551546
1698.000000	93.895171
1696.000000	93.809484
1694.000000	94.950901
1692.000000	95.955084
1690.000000	95.891365
1688.000000	95.388997
1686.000000	93.748358
1684.000000	93.127690
1682.000000	94.610789
1680.000000	95.471514
1678.000000	95.294281
1676.000000	94.594013
1674.000000	94.598543
1672.000000	94.674213
1670.000000	94.244776
1668.000000	94.525541
1666.000000	94.933488
1664.000000	94.588184
1662.000000	94.418482
1660.000000	94.703544
1658.000000	94.610244
1656.000000	93.248636
1654.000000	90.710241
1652.000000	90.915319
1650.000000	92.935093
1648.000000	92.808861
1646.000000	92.453698
1644.000000	93.232601
1642.000000	93.691910
1640.000000	93.449437
1638.000000	92.517408
1636.000000	91.425763
1634.000000	91.930686
1632.000000	92.755370
1630.000000	92.598276
1628.000000	92.167789
1626.000000	91.740652
1624.000000	91.095510
1622.000000	90.801157
1620.000000	90.440544
1618.000000	89.153648
1616.000000	88.611147
1614.000000	89.097157
1612.000000	88.815729
1610.000000	88.173678
1608.000000	87.848118
1606.000000	87.899446
1604.000000	88.097390
1602.000000	88.345073
1600.000000	88.594352
1598.000000	88.800468
1596.000000	88.933209
1594.000000	89.046602
1592.000000	89.122495
1590.000000	89.132128
1588.000000	89.100570
1586.000000	89.035436
1584.000000	88.958610
1582.000000	88.903627
1580.000000	88.712211
1578.000000	87.711840
1576.000000	87.008543
1574.000000	87.931977
1572.000000	88.228864
1570.000000	87.710076
1568.000000	87.805242
1566.000000	87.925591
1564.000000	87.601585
1562.000000	86.248257
1560.000000	84.010354
1558.000000	84.049451
1556.000000	85.654750
1554.000000	86.530288
1552.000000	87.193818
1550.000000	87.555116
1548.000000	87.741603
1546.000000	87.525633
1544.000000	86.991185
1542.000000	86.070932
1540.000000	85.560415
1538.000000	86.992775
1536.000000	88.406388
1534.000000	88.409506
1532.000000	88.767541
1530.000000	89.136421
1528.000000	88.903642
1526.000000	88.547683
1524.000000	88.107316
1522.000000	87.282147
1520.000000	87.447297
1518.000000	87.924612
1516.000000	87.963890
1514.000000	88.005474
1512.000000	87.794463
1510.000000	87.148017
1508.000000	85.506070
1506.000000	84.732352
1504.000000	85.515559
1502.000000	85.013363
1500.000000	82.475638
1498.000000	79.006441
1496.000000	76.481493
1494.000000	76.287215
1492.000000	77.371275
1490.000000	79.008996
1488.000000	81.008814
1486.000000	82.731473
1484.000000	83.864418
1482.000000	84.377002
1480.000000	84.611155
1478.000000	84.469713
1476.000000	83.976289
1474.000000	83.247687
1472.000000	83.074170
1470.000000	83.600127
1468.000000	83.558467
1466.000000	82.847074
1464.000000	82.453112
1462.000000	82.289413
1460.000000	81.165791
1458.000000	79.101855
1456.000000	78.118947
1454.000000	78.230393
1452.000000	77.924579
1450.000000	77.973691
1448.000000	78.756935
1446.000000	79.797316
1444.000000	80.344968
1442.000000	80.469999
1440.000000	80.298949
1438.000000	79.671483
1436.000000	79.585924
1434.000000	80.281502
1432.000000	80.434771
1430.000000	80.343881
1428.000000	80.410796
1426.000000	80.432926
1424.000000	80.290311
1422.000000	79.967626
1420.000000	79.227585
1418.000000	79.222573
1416.000000	79.633230
1414.000000	79.605297
1412.000000	79.254613
1410.000000	78.731074
1408.000000	77.965391
1406.000000	77.097510
1404.000000	76.625611
1402.000000	76.658919
1400.000000	76.803528
1398.000000	77.198300
1396.000000	77.539357
1394.000000	77.876941
1392.000000	78.331558
1390.000000	78.337957
1388.000000	77.921405
1386.000000	77.690407
1384.000000	77.696667
1382.000000	77.819425
1380.000000	77.906958
1378.000000	77.837604
1376.000000	77.633158
1374.000000	77.465514
1372.000000	77.482008
1370.000000	77.418921
1368.000000	77.267246
1366.000000	77.100679
1364.000000	76.802713
1362.000000	76.593103
1360.000000	76.561529
1358.000000	76.477152
1356.000000	76.286149
1354.000000	76.081459
1352.000000	75.879761
1350.000000	75.663663
1348.000000	75.445993
1346.000000	75.221752
1344.000000	74.968965
1342.000000	74.661125
1340.000000	74.360949
1338.000000	74.233052
1336.000000	74.201266
1334.000000	74.132201
1332.000000	73.985646
1330.000000	73.793111
1328.000000	73.569820
1326.000000	73.326125
1324.000000	73.059846
1322.000000	72.770975
1320.000000	72.451854
1318.000000	72.150587
1316.000000	71.862706
1314.000000	71.552847
1312.000000	71.242122
1310.000000	70.938692
1308.000000	70.615032
1306.000000	70.285767
1304.000000	69.944901
1302.000000	69.600021
1300.000000	69.254361
1298.000000	68.908199
1296.000000	68.551796
1294.000000	68.187783
1292.000000	67.803120
1290.000000	67.405139
1288.000000	67.000282
1286.000000	66.602660
1284.000000	66.194211
1282.000000	65.765120
1280.000000	65.305975
1278.000000	64.817242
1276.000000	64.278473
1274.000000	63.661814
1272.000000	62.927451
1270.000000	62.039393
1268.000000	60.934423
1266.000000	59.615712
1264.000000	58.243549
1262.000000	57.139691
1260.000000	56.586716
1258.000000	56.595801
1256.000000	56.888239
1254.000000	57.134686
1252.000000	57.132809
1250.000000	56.890840
1248.000000	56.495356
1246.000000	56.019745
1244.000000	55.508895
1242.000000	54.993223
1240.000000	54.483239
1238.000000	53.991998
1236.000000	53.514449
1234.000000	53.050566
1232.000000	52.594381
1230.000000	52.147648
1228.000000	51.700063
1226.000000	51.249013
1224.000000	50.789664
1222.000000	50.318524
1220.000000	49.824889
1218.000000	49.313209
1216.000000	48.790276
1214.000000	48.274646
1212.000000	47.781021
1210.000000	47.327414
1208.000000	46.909068
1206.000000	46.511129
1204.000000	46.112449
1202.000000	45.712778
1200.000000	45.317059
1198.000000	44.928496
1196.000000	44.535518
1194.000000	44.132182
1192.000000	43.714334
1190.000000	43.285206
1188.000000	42.841418
1186.000000	42.368714
1184.000000	41.784296
1182.000000	41.055619
1180.000000	40.487437
1178.000000	40.239002
1176.000000	40.007407
1174.000000	39.649835
1172.000000	39.222129
1170.000000	38.773302
1168.000000	38.306748
1166.000000	37.831680
1164.000000	37.359148
1162.000000	36.898316
1160.000000	36.441669
1158.000000	36.004807
1156.000000	35.583221
1154.000000	35.164716
1152.000000	34.740189
1150.000000	34.319544
1148.000000	33.886540
1146.000000	33.446518
1144.000000	33.016025
1142.000000	32.637425
1140.000000	32.326742
1138.000000	32.015053
1136.000000	31.654726
1134.000000	31.260942
1132.000000	30.845882
1130.000000	30.420931
1128.000000	29.997971
1126.000000	29.580076
1124.000000	29.149945
1122.000000	28.709752
1120.000000	28.258992
1118.000000	27.800934
1116.000000	27.335639
1114.000000	26.868412
1112.000000	26.399504
1110.000000	25.935574
1108.000000	25.479225
1106.000000	25.043379
1104.000000	24.625897
1102.000000	24.214524
1100.000000	23.800782
1098.000000	23.394466
1096.000000	22.997260
1094.000000	22.613916
1092.000000	22.245864
1090.000000	21.892387
1088.000000	21.549492
1086.000000	21.213459
1084.000000	20.866603
1082.000000	20.509066
1080.000000	20.170594
1078.000000	19.866470
1076.000000	19.589972
1074.000000	19.355700
1072.000000	19.137865
1070.000000	18.914407
1068.000000	18.685333
1066.000000	18.455031
1064.000000	18.222802
1062.000000	17.988025
1060.000000	17.739775
1058.000000	17.453763
1056.000000	17.066585
1054.000000	16.553084
1052.000000	16.044001
1050.000000	15.744240
1048.000000	15.709403
1046.000000	15.792003
1044.000000	15.794356
1042.000000	15.678217
1040.000000	15.494367
1038.000000	15.281281
1036.000000	15.051810
1034.000000	14.813746
1032.000000	14.565325
1030.000000	14.308389
1028.000000	14.043129
1026.000000	13.773623
1024.000000	13.501187
1022.000000	13.233173
1020.000000	12.976981
1018.000000	12.741691
1016.000000	12.528001
1014.000000	12.339238
1012.000000	12.169944
1010.000000	12.010438
1008.000000	11.845257
1006.000000	11.666377
1004.000000	11.469652
1002.000000	11.257612
1000.000000	11.029404
