PE IR       SUBTECH     SPECTRUM    ASCII       PEDS        4.00        
   -1
TE110A_019_AFTER_90K_BG.ASC
20/05/14
12:12:00.00
20/05/14
12:12:00.00
Administrator
TE110A.Thursday, May 14 2020, 002.
1000.000000
#HDR
-1
-1
#GR
cm-1
EGY
1.0
0.0
6000.000000
-2.000000
2501
8
105.637271
11.031720
#DATA
6000.000000	16.752900
5998.000000	16.785154
5996.000000	16.816778
5994.000000	16.849453
5992.000000	16.881958
5990.000000	16.914716
5988.000000	16.947112
5986.000000	16.980499
5984.000000	17.014583
5982.000000	17.048647
5980.000000	17.082071
5978.000000	17.116514
5976.000000	17.150715
5974.000000	17.184720
5972.000000	17.218719
5970.000000	17.253497
5968.000000	17.287446
5966.000000	17.321416
5964.000000	17.354730
5962.000000	17.389014
5960.000000	17.422397
5958.000000	17.456029
5956.000000	17.490856
5954.000000	17.526055
5952.000000	17.561074
5950.000000	17.595884
5948.000000	17.630215
5946.000000	17.664966
5944.000000	17.698496
5942.000000	17.731425
5940.000000	17.764944
5938.000000	17.799833
5936.000000	17.834595
5934.000000	17.868825
5932.000000	17.902049
5930.000000	17.936278
5928.000000	17.971054
5926.000000	18.005243
5924.000000	18.040381
5922.000000	18.076013
5920.000000	18.112158
5918.000000	18.148274
5916.000000	18.183783
5914.000000	18.220284
5912.000000	18.257269
5910.000000	18.294852
5908.000000	18.331379
5906.000000	18.367425
5904.000000	18.403882
5902.000000	18.441209
5900.000000	18.478745
5898.000000	18.515451
5896.000000	18.551892
5894.000000	18.587916
5892.000000	18.623459
5890.000000	18.660106
5888.000000	18.696929
5886.000000	18.733882
5884.000000	18.769504
5882.000000	18.805440
5880.000000	18.841676
5878.000000	18.877686
5876.000000	18.913572
5874.000000	18.950138
5872.000000	18.987866
5870.000000	19.026420
5868.000000	19.063214
5866.000000	19.100434
5864.000000	19.137231
5862.000000	19.175294
5860.000000	19.213696
5858.000000	19.251316
5856.000000	19.289439
5854.000000	19.327880
5852.000000	19.366366
5850.000000	19.405735
5848.000000	19.444733
5846.000000	19.485068
5844.000000	19.525178
5842.000000	19.565393
5840.000000	19.607023
5838.000000	19.649282
5836.000000	19.691788
5834.000000	19.733740
5832.000000	19.773968
5830.000000	19.814859
5828.000000	19.856181
5826.000000	19.898349
5824.000000	19.940500
5822.000000	19.982162
5820.000000	20.023830
5818.000000	20.064952
5816.000000	20.105327
5814.000000	20.146310
5812.000000	20.187701
5810.000000	20.228489
5808.000000	20.268080
5806.000000	20.308497
5804.000000	20.349419
5802.000000	20.390207
5800.000000	20.430567
5798.000000	20.471393
5796.000000	20.512327
5794.000000	20.553159
5792.000000	20.594760
5790.000000	20.636796
5788.000000	20.678956
5786.000000	20.720470
5784.000000	20.762186
5782.000000	20.803834
5780.000000	20.845699
5778.000000	20.888756
5776.000000	20.931381
5774.000000	20.972860
5772.000000	21.013675
5770.000000	21.055310
5768.000000	21.098515
5766.000000	21.141138
5764.000000	21.183556
5762.000000	21.225213
5760.000000	21.266419
5758.000000	21.307950
5756.000000	21.350315
5754.000000	21.392937
5752.000000	21.435196
5750.000000	21.477129
5748.000000	21.519280
5746.000000	21.561568
5744.000000	21.602658
5742.000000	21.643435
5740.000000	21.683771
5738.000000	21.724045
5736.000000	21.764487
5734.000000	21.805788
5732.000000	21.848065
5730.000000	21.890229
5728.000000	21.930709
5726.000000	21.970728
5724.000000	22.010645
5722.000000	22.052910
5720.000000	22.095506
5718.000000	22.138065
5716.000000	22.180912
5714.000000	22.225734
5712.000000	22.271317
5710.000000	22.316041
5708.000000	22.359572
5706.000000	22.403284
5704.000000	22.447420
5702.000000	22.491352
5700.000000	22.535949
5698.000000	22.581583
5696.000000	22.627464
5694.000000	22.673608
5692.000000	22.718676
5690.000000	22.764311
5688.000000	22.810135
5686.000000	22.856460
5684.000000	22.901573
5682.000000	22.945619
5680.000000	22.989657
5678.000000	23.035426
5676.000000	23.081559
5674.000000	23.127770
5672.000000	23.173487
5670.000000	23.219725
5668.000000	23.265968
5666.000000	23.312075
5664.000000	23.357439
5662.000000	23.403108
5660.000000	23.449257
5658.000000	23.495480
5656.000000	23.540524
5654.000000	23.585173
5652.000000	23.629437
5650.000000	23.674690
5648.000000	23.720948
5646.000000	23.767775
5644.000000	23.813756
5642.000000	23.859057
5640.000000	23.904024
5638.000000	23.949639
5636.000000	23.994853
5634.000000	24.040961
5632.000000	24.086938
5630.000000	24.132597
5628.000000	24.178213
5626.000000	24.224231
5624.000000	24.269909
5622.000000	24.315444
5620.000000	24.361189
5618.000000	24.407394
5616.000000	24.453462
5614.000000	24.498939
5612.000000	24.544412
5610.000000	24.590581
5608.000000	24.636197
5606.000000	24.682121
5604.000000	24.727951
5602.000000	24.774870
5600.000000	24.821514
5598.000000	24.867192
5596.000000	24.912527
5594.000000	24.959103
5592.000000	25.006223
5590.000000	25.053672
5588.000000	25.100711
5586.000000	25.147893
5584.000000	25.195027
5582.000000	25.242341
5580.000000	25.289654
5578.000000	25.337429
5576.000000	25.385644
5574.000000	25.433708
5572.000000	25.481618
5570.000000	25.529476
5568.000000	25.576704
5566.000000	25.624132
5564.000000	25.671587
5562.000000	25.720598
5560.000000	25.769780
5558.000000	25.818224
5556.000000	25.865169
5554.000000	25.911853
5552.000000	25.958309
5550.000000	26.005268
5548.000000	26.052848
5546.000000	26.101039
5544.000000	26.149705
5542.000000	26.197967
5540.000000	26.245184
5538.000000	26.291842
5536.000000	26.339251
5534.000000	26.387721
5532.000000	26.436545
5530.000000	26.484697
5528.000000	26.532247
5526.000000	26.578712
5524.000000	26.624093
5522.000000	26.671260
5520.000000	26.718864
5518.000000	26.766437
5516.000000	26.814289
5514.000000	26.864936
5512.000000	26.913582
5510.000000	26.957705
5508.000000	27.001694
5506.000000	27.050122
5504.000000	27.101394
5502.000000	27.151814
5500.000000	27.200843
5498.000000	27.246292
5496.000000	27.284525
5494.000000	27.322849
5492.000000	27.368151
5490.000000	27.422490
5488.000000	27.480135
5486.000000	27.538088
5484.000000	27.594133
5482.000000	27.645810
5480.000000	27.686718
5478.000000	27.718962
5476.000000	27.758488
5474.000000	27.813795
5472.000000	27.875411
5470.000000	27.929568
5468.000000	27.976974
5466.000000	28.023295
5464.000000	28.066639
5462.000000	28.111981
5460.000000	28.163797
5458.000000	28.220845
5456.000000	28.277736
5454.000000	28.328709
5452.000000	28.372174
5450.000000	28.408297
5448.000000	28.444355
5446.000000	28.486831
5444.000000	28.534051
5442.000000	28.589889
5440.000000	28.647935
5438.000000	28.698515
5436.000000	28.743723
5434.000000	28.788600
5432.000000	28.832236
5430.000000	28.876690
5428.000000	28.932106
5426.000000	29.002334
5424.000000	29.070834
5422.000000	29.127559
5420.000000	29.175763
5418.000000	29.208986
5416.000000	29.230047
5414.000000	29.255722
5412.000000	29.302332
5410.000000	29.371214
5408.000000	29.443300
5406.000000	29.508849
5404.000000	29.565757
5402.000000	29.617595
5400.000000	29.663041
5398.000000	29.696686
5396.000000	29.727388
5394.000000	29.773983
5392.000000	29.838228
5390.000000	29.900592
5388.000000	29.947225
5386.000000	29.993781
5384.000000	30.052338
5382.000000	30.111458
5380.000000	30.152048
5378.000000	30.186256
5376.000000	30.234525
5374.000000	30.302399
5372.000000	30.372450
5370.000000	30.432997
5368.000000	30.482906
5366.000000	30.528090
5364.000000	30.575339
5362.000000	30.628245
5360.000000	30.682309
5358.000000	30.724309
5356.000000	30.753373
5354.000000	30.789346
5352.000000	30.842839
5350.000000	30.901822
5348.000000	30.940851
5346.000000	30.975980
5344.000000	31.024787
5342.000000	31.077537
5340.000000	31.124032
5338.000000	31.176303
5336.000000	31.245226
5334.000000	31.314926
5332.000000	31.370315
5330.000000	31.415337
5328.000000	31.463435
5326.000000	31.522334
5324.000000	31.588635
5322.000000	31.649441
5320.000000	31.700435
5318.000000	31.749634
5316.000000	31.800880
5314.000000	31.853792
5312.000000	31.901152
5310.000000	31.941025
5308.000000	31.983980
5306.000000	32.038070
5304.000000	32.098527
5302.000000	32.154603
5300.000000	32.206760
5298.000000	32.259491
5296.000000	32.311126
5294.000000	32.354593
5292.000000	32.394595
5290.000000	32.442723
5288.000000	32.498869
5286.000000	32.556511
5284.000000	32.610257
5282.000000	32.665184
5280.000000	32.722791
5278.000000	32.781175
5276.000000	32.837152
5274.000000	32.887999
5272.000000	32.935466
5270.000000	32.981923
5268.000000	33.020398
5266.000000	33.053442
5264.000000	33.096869
5262.000000	33.160892
5260.000000	33.230504
5258.000000	33.284416
5256.000000	33.329742
5254.000000	33.380697
5252.000000	33.430581
5250.000000	33.472250
5248.000000	33.513599
5246.000000	33.569520
5244.000000	33.637246
5242.000000	33.705646
5240.000000	33.768528
5238.000000	33.823548
5236.000000	33.873432
5234.000000	33.920784
5232.000000	33.968812
5230.000000	34.014407
5228.000000	34.053914
5226.000000	34.098933
5224.000000	34.158806
5222.000000	34.225426
5220.000000	34.284010
5218.000000	34.338770
5216.000000	34.397438
5214.000000	34.454033
5212.000000	34.496173
5210.000000	34.522752
5208.000000	34.553769
5206.000000	34.611027
5204.000000	34.687814
5202.000000	34.760503
5200.000000	34.814914
5198.000000	34.863830
5196.000000	34.918649
5194.000000	34.978987
5192.000000	35.035572
5190.000000	35.086598
5188.000000	35.134769
5186.000000	35.186032
5184.000000	35.242386
5182.000000	35.302669
5180.000000	35.360925
5178.000000	35.417708
5176.000000	35.474444
5174.000000	35.528905
5172.000000	35.582051
5170.000000	35.637579
5168.000000	35.693384
5166.000000	35.746188
5164.000000	35.798772
5162.000000	35.854703
5160.000000	35.910401
5158.000000	35.963544
5156.000000	36.017143
5154.000000	36.073715
5152.000000	36.131589
5150.000000	36.188672
5148.000000	36.244007
5146.000000	36.296875
5144.000000	36.347778
5142.000000	36.400749
5140.000000	36.456402
5138.000000	36.512496
5136.000000	36.566198
5134.000000	36.620569
5132.000000	36.675845
5130.000000	36.730925
5128.000000	36.784847
5126.000000	36.840255
5124.000000	36.895856
5122.000000	36.949332
5120.000000	37.001513
5118.000000	37.055769
5116.000000	37.111312
5114.000000	37.166513
5112.000000	37.220512
5110.000000	37.275869
5108.000000	37.332210
5106.000000	37.389072
5104.000000	37.445749
5102.000000	37.502001
5100.000000	37.557287
5098.000000	37.611654
5096.000000	37.666136
5094.000000	37.722500
5092.000000	37.781126
5090.000000	37.840081
5088.000000	37.896173
5086.000000	37.951223
5084.000000	38.007339
5082.000000	38.064639
5080.000000	38.121981
5078.000000	38.180523
5076.000000	38.237855
5074.000000	38.293523
5072.000000	38.349308
5070.000000	38.406985
5068.000000	38.464501
5066.000000	38.520229
5064.000000	38.575640
5062.000000	38.632608
5060.000000	38.689836
5058.000000	38.746850
5056.000000	38.802547
5054.000000	38.858520
5052.000000	38.914541
5050.000000	38.971233
5048.000000	39.027760
5046.000000	39.084008
5044.000000	39.140087
5042.000000	39.196409
5040.000000	39.252175
5038.000000	39.307823
5036.000000	39.364065
5034.000000	39.421118
5032.000000	39.477591
5030.000000	39.533781
5028.000000	39.589898
5026.000000	39.646384
5024.000000	39.702489
5022.000000	39.758647
5020.000000	39.814551
5018.000000	39.871196
5016.000000	39.928391
5014.000000	39.985557
5012.000000	40.041677
5010.000000	40.097943
5008.000000	40.155095
5006.000000	40.213481
5004.000000	40.271445
5002.000000	40.329619
5000.000000	40.387231
4998.000000	40.444809
4996.000000	40.501998
4994.000000	40.559579
4992.000000	40.617587
4990.000000	40.677068
4988.000000	40.736664
4986.000000	40.795997
4984.000000	40.854357
4982.000000	40.912819
4980.000000	40.971331
4978.000000	41.030115
4976.000000	41.088214
4974.000000	41.145639
4972.000000	41.203426
4970.000000	41.261712
4968.000000	41.318899
4966.000000	41.376204
4964.000000	41.434519
4962.000000	41.494261
4960.000000	41.552833
4958.000000	41.610602
4956.000000	41.666877
4954.000000	41.722876
4952.000000	41.779845
4950.000000	41.837774
4948.000000	41.894811
4946.000000	41.951382
4944.000000	42.007794
4942.000000	42.064840
4940.000000	42.121120
4938.000000	42.177399
4936.000000	42.233274
4934.000000	42.291025
4932.000000	42.348759
4930.000000	42.406234
4928.000000	42.463154
4926.000000	42.519852
4924.000000	42.576059
4922.000000	42.633938
4920.000000	42.692600
4918.000000	42.751008
4916.000000	42.808446
4914.000000	42.866489
4912.000000	42.925164
4910.000000	42.984279
4908.000000	43.042537
4906.000000	43.100078
4904.000000	43.157547
4902.000000	43.216591
4900.000000	43.277184
4898.000000	43.338372
4896.000000	43.398879
4894.000000	43.458396
4892.000000	43.516478
4890.000000	43.574207
4888.000000	43.632715
4886.000000	43.692952
4884.000000	43.753262
4882.000000	43.812452
4880.000000	43.871044
4878.000000	43.931003
4876.000000	43.990479
4874.000000	44.048922
4872.000000	44.107510
4870.000000	44.167319
4868.000000	44.226071
4866.000000	44.284762
4864.000000	44.343626
4862.000000	44.402601
4860.000000	44.460542
4858.000000	44.519172
4856.000000	44.577946
4854.000000	44.636783
4852.000000	44.694605
4850.000000	44.752266
4848.000000	44.810093
4846.000000	44.868667
4844.000000	44.926010
4842.000000	44.982542
4840.000000	45.038994
4838.000000	45.096996
4836.000000	45.155534
4834.000000	45.214822
4832.000000	45.273667
4830.000000	45.332309
4828.000000	45.389878
4826.000000	45.447940
4824.000000	45.506534
4822.000000	45.565049
4820.000000	45.622384
4818.000000	45.679878
4816.000000	45.738610
4814.000000	45.798485
4812.000000	45.858188
4810.000000	45.917937
4808.000000	45.977483
4806.000000	46.037780
4804.000000	46.098330
4802.000000	46.159145
4800.000000	46.219169
4798.000000	46.279628
4796.000000	46.339368
4794.000000	46.399271
4792.000000	46.459767
4790.000000	46.522277
4788.000000	46.584516
4786.000000	46.645113
4784.000000	46.704146
4782.000000	46.763961
4780.000000	46.823684
4778.000000	46.883664
4776.000000	46.944364
4774.000000	47.005483
4772.000000	47.064535
4770.000000	47.123574
4768.000000	47.183453
4766.000000	47.243978
4764.000000	47.302702
4762.000000	47.360911
4760.000000	47.419104
4758.000000	47.478535
4756.000000	47.537740
4754.000000	47.596605
4752.000000	47.654580
4750.000000	47.712442
4748.000000	47.769671
4746.000000	47.827304
4744.000000	47.885307
4742.000000	47.944017
4740.000000	48.002863
4738.000000	48.062028
4736.000000	48.120113
4734.000000	48.178182
4732.000000	48.236548
4730.000000	48.295697
4728.000000	48.354363
4726.000000	48.413667
4724.000000	48.472618
4722.000000	48.531929
4720.000000	48.591526
4718.000000	48.653279
4716.000000	48.715777
4714.000000	48.777819
4712.000000	48.838749
4710.000000	48.900996
4708.000000	48.964057
4706.000000	49.027936
4704.000000	49.091784
4702.000000	49.155736
4700.000000	49.218686
4698.000000	49.281396
4696.000000	49.344081
4694.000000	49.407312
4692.000000	49.469024
4690.000000	49.529532
4688.000000	49.589978
4686.000000	49.652221
4684.000000	49.714461
4682.000000	49.776771
4680.000000	49.838635
4678.000000	49.901283
4676.000000	49.962633
4674.000000	50.022706
4672.000000	50.082163
4670.000000	50.144164
4668.000000	50.206114
4666.000000	50.267353
4664.000000	50.328600
4662.000000	50.391445
4660.000000	50.452758
4658.000000	50.513026
4656.000000	50.573509
4654.000000	50.635263
4652.000000	50.697163
4650.000000	50.758811
4648.000000	50.819165
4646.000000	50.879477
4644.000000	50.939978
4642.000000	51.001791
4640.000000	51.063521
4638.000000	51.126015
4636.000000	51.188484
4634.000000	51.250755
4632.000000	51.310580
4630.000000	51.370742
4628.000000	51.431874
4626.000000	51.494253
4624.000000	51.556121
4622.000000	51.617858
4620.000000	51.679447
4618.000000	51.742963
4616.000000	51.806618
4614.000000	51.871209
4612.000000	51.935616
4610.000000	51.999413
4608.000000	52.062727
4606.000000	52.127598
4604.000000	52.192144
4602.000000	52.257786
4600.000000	52.323880
4598.000000	52.390160
4596.000000	52.455331
4594.000000	52.520708
4592.000000	52.585065
4590.000000	52.649633
4588.000000	52.713863
4586.000000	52.778727
4584.000000	52.842065
4582.000000	52.905459
4580.000000	52.969830
4578.000000	53.034975
4576.000000	53.098643
4574.000000	53.162956
4572.000000	53.227815
4570.000000	53.292525
4568.000000	53.355364
4566.000000	53.418322
4564.000000	53.482682
4562.000000	53.547790
4560.000000	53.610629
4558.000000	53.672919
4556.000000	53.735788
4554.000000	53.799136
4552.000000	53.861091
4550.000000	53.922997
4548.000000	53.985507
4546.000000	54.048776
4544.000000	54.111006
4542.000000	54.174173
4540.000000	54.238062
4538.000000	54.301472
4536.000000	54.363844
4534.000000	54.426659
4532.000000	54.489080
4530.000000	54.552258
4528.000000	54.615894
4526.000000	54.680533
4524.000000	54.745492
4522.000000	54.810087
4520.000000	54.873280
4518.000000	54.937620
4516.000000	55.002252
4514.000000	55.067088
4512.000000	55.131772
4510.000000	55.196989
4508.000000	55.261059
4506.000000	55.325666
4504.000000	55.390796
4502.000000	55.457133
4500.000000	55.523460
4498.000000	55.590332
4496.000000	55.656869
4494.000000	55.724277
4492.000000	55.790595
4490.000000	55.855996
4488.000000	55.921144
4486.000000	55.986876
4484.000000	56.051312
4482.000000	56.115440
4480.000000	56.179532
4478.000000	56.243598
4476.000000	56.306564
4474.000000	56.370619
4472.000000	56.434565
4470.000000	56.497305
4468.000000	56.559688
4466.000000	56.623203
4464.000000	56.685622
4462.000000	56.748761
4460.000000	56.811489
4458.000000	56.873776
4456.000000	56.936113
4454.000000	56.998740
4452.000000	57.059500
4450.000000	57.120964
4448.000000	57.182206
4446.000000	57.244409
4444.000000	57.307894
4442.000000	57.372011
4440.000000	57.434383
4438.000000	57.497368
4436.000000	57.559894
4434.000000	57.622054
4432.000000	57.684261
4430.000000	57.748062
4428.000000	57.812130
4426.000000	57.877176
4424.000000	57.941664
4422.000000	58.005177
4420.000000	58.068277
4418.000000	58.132748
4416.000000	58.196560
4414.000000	58.260707
4412.000000	58.325624
4410.000000	58.390197
4408.000000	58.452688
4406.000000	58.516999
4404.000000	58.583554
4402.000000	58.649814
4400.000000	58.713116
4398.000000	58.776799
4396.000000	58.841150
4394.000000	58.905459
4392.000000	58.968234
4390.000000	59.031693
4388.000000	59.094459
4386.000000	59.155886
4384.000000	59.216037
4382.000000	59.277628
4380.000000	59.339349
4378.000000	59.400864
4376.000000	59.460564
4374.000000	59.520360
4372.000000	59.580498
4370.000000	59.640949
4368.000000	59.701020
4366.000000	59.762782
4364.000000	59.823469
4362.000000	59.883045
4360.000000	59.943397
4358.000000	60.006820
4356.000000	60.069773
4354.000000	60.131346
4352.000000	60.193911
4350.000000	60.259610
4348.000000	60.323976
4346.000000	60.387361
4344.000000	60.450532
4342.000000	60.513908
4340.000000	60.576788
4338.000000	60.640878
4336.000000	60.704624
4334.000000	60.768035
4332.000000	60.830499
4330.000000	60.894461
4328.000000	60.959141
4326.000000	61.024945
4324.000000	61.090994
4322.000000	61.157272
4320.000000	61.223763
4318.000000	61.292956
4316.000000	61.361545
4314.000000	61.428468
4312.000000	61.495869
4310.000000	61.565525
4308.000000	61.633075
4306.000000	61.698995
4304.000000	61.764575
4302.000000	61.831113
4300.000000	61.897554
4298.000000	61.963727
4296.000000	62.028276
4294.000000	62.093783
4292.000000	62.158859
4290.000000	62.222841
4288.000000	62.284911
4286.000000	62.346273
4284.000000	62.406695
4282.000000	62.467826
4280.000000	62.528470
4278.000000	62.589086
4276.000000	62.648464
4274.000000	62.707695
4272.000000	62.766400
4270.000000	62.825562
4268.000000	62.884692
4266.000000	62.945046
4264.000000	63.006078
4262.000000	63.068382
4260.000000	63.129975
4258.000000	63.192359
4256.000000	63.255783
4254.000000	63.319829
4252.000000	63.383551
4250.000000	63.448698
4248.000000	63.513302
4246.000000	63.576982
4244.000000	63.640517
4242.000000	63.705024
4240.000000	63.768753
4238.000000	63.833932
4236.000000	63.899278
4234.000000	63.963188
4232.000000	64.026351
4230.000000	64.091765
4228.000000	64.158000
4226.000000	64.223685
4224.000000	64.286716
4222.000000	64.350161
4220.000000	64.414694
4218.000000	64.480119
4216.000000	64.544410
4214.000000	64.609106
4212.000000	64.674900
4210.000000	64.742008
4208.000000	64.807286
4206.000000	64.873238
4204.000000	64.941122
4202.000000	65.010414
4200.000000	65.077904
4198.000000	65.145379
4196.000000	65.214267
4194.000000	65.284655
4192.000000	65.353362
4190.000000	65.421535
4188.000000	65.488425
4186.000000	65.554904
4184.000000	65.621651
4182.000000	65.689087
4180.000000	65.754926
4178.000000	65.820885
4176.000000	65.886572
4174.000000	65.951308
4172.000000	66.015105
4170.000000	66.079541
4168.000000	66.143508
4166.000000	66.208759
4164.000000	66.272659
4162.000000	66.335137
4160.000000	66.399252
4158.000000	66.465443
4156.000000	66.529333
4154.000000	66.592784
4152.000000	66.657444
4150.000000	66.723450
4148.000000	66.789132
4146.000000	66.855274
4144.000000	66.920186
4142.000000	66.984507
4140.000000	67.048450
4138.000000	67.113855
4136.000000	67.179752
4134.000000	67.246692
4132.000000	67.313942
4130.000000	67.380972
4128.000000	67.445612
4126.000000	67.510102
4124.000000	67.576133
4122.000000	67.643850
4120.000000	67.710568
4118.000000	67.777348
4116.000000	67.843433
4114.000000	67.909486
4112.000000	67.975424
4110.000000	68.040960
4108.000000	68.102917
4106.000000	68.165094
4104.000000	68.230792
4102.000000	68.298037
4100.000000	68.362866
4098.000000	68.426991
4096.000000	68.490905
4094.000000	68.555742
4092.000000	68.620083
4090.000000	68.685682
4088.000000	68.753616
4086.000000	68.824542
4084.000000	68.895030
4082.000000	68.964272
4080.000000	69.032737
4078.000000	69.101637
4076.000000	69.168348
4074.000000	69.233443
4072.000000	69.297919
4070.000000	69.363644
4068.000000	69.429119
4066.000000	69.494453
4064.000000	69.558511
4062.000000	69.622489
4060.000000	69.687218
4058.000000	69.753725
4056.000000	69.819404
4054.000000	69.884596
4052.000000	69.948857
4050.000000	70.012344
4048.000000	70.072457
4046.000000	70.131459
4044.000000	70.196328
4042.000000	70.268393
4040.000000	70.338904
4038.000000	70.407013
4036.000000	70.473356
4034.000000	70.539153
4032.000000	70.604942
4030.000000	70.671400
4028.000000	70.736044
4026.000000	70.801791
4024.000000	70.872217
4022.000000	70.943307
4020.000000	71.010104
4018.000000	71.078766
4016.000000	71.149312
4014.000000	71.219099
4012.000000	71.284490
4010.000000	71.347509
4008.000000	71.417236
4006.000000	71.493767
4004.000000	71.565036
4002.000000	71.632325
4000.000000	71.699313
3998.000000	71.763288
3996.000000	71.822890
3994.000000	71.883859
3992.000000	71.947713
3990.000000	72.016339
3988.000000	72.086911
3986.000000	72.152948
3984.000000	72.212652
3982.000000	72.274028
3980.000000	72.337371
3978.000000	72.394943
3976.000000	72.447309
3974.000000	72.506456
3972.000000	72.571702
3970.000000	72.639221
3968.000000	72.708892
3966.000000	72.772136
3964.000000	72.819852
3962.000000	72.870535
3960.000000	72.935489
3958.000000	73.003566
3956.000000	73.067090
3954.000000	73.117934
3952.000000	73.142043
3950.000000	73.163356
3948.000000	73.222239
3946.000000	73.289184
3944.000000	73.329412
3942.000000	73.406059
3940.000000	73.528702
3938.000000	73.626081
3936.000000	73.651482
3934.000000	73.622461
3932.000000	73.644450
3930.000000	73.762327
3928.000000	73.864126
3926.000000	73.904086
3924.000000	73.955995
3922.000000	74.006236
3920.000000	73.994005
3918.000000	74.009305
3916.000000	74.163647
3914.000000	74.373813
3912.000000	74.510854
3910.000000	74.559971
3908.000000	74.458813
3906.000000	74.176615
3904.000000	73.937285
3902.000000	73.942368
3900.000000	74.180279
3898.000000	74.558641
3896.000000	74.830755
3894.000000	74.784348
3892.000000	74.665561
3890.000000	74.738509
3888.000000	74.718107
3886.000000	74.627055
3884.000000	74.776625
3882.000000	74.950225
3880.000000	75.095898
3878.000000	75.292509
3876.000000	75.330367
3874.000000	75.177308
3872.000000	74.887526
3870.000000	74.778587
3868.000000	75.016715
3866.000000	75.205574
3864.000000	75.334306
3862.000000	75.599793
3860.000000	75.817944
3858.000000	75.502936
3856.000000	74.395188
3854.000000	73.619120
3852.000000	74.292898
3850.000000	75.568171
3848.000000	76.263733
3846.000000	76.346576
3844.000000	76.210585
3842.000000	75.963673
3840.000000	75.508966
3838.000000	75.283498
3836.000000	75.669729
3834.000000	76.184292
3832.000000	76.492435
3830.000000	76.721122
3828.000000	76.859307
3826.000000	76.867859
3824.000000	76.607512
3822.000000	76.282332
3820.000000	76.283767
3818.000000	76.260360
3816.000000	76.327947
3814.000000	76.921525
3812.000000	77.442670
3810.000000	77.350486
3808.000000	77.008626
3806.000000	76.964856
3804.000000	76.856518
3802.000000	76.627674
3800.000000	76.943555
3798.000000	77.477009
3796.000000	77.794565
3794.000000	78.048730
3792.000000	78.224523
3790.000000	78.300751
3788.000000	78.323023
3786.000000	78.330074
3784.000000	78.357245
3782.000000	78.336736
3780.000000	78.309511
3778.000000	78.444250
3776.000000	78.641861
3774.000000	78.680253
3772.000000	78.514371
3770.000000	78.397149
3768.000000	78.486760
3766.000000	78.651173
3764.000000	78.801463
3762.000000	78.808020
3760.000000	78.724088
3758.000000	78.764832
3756.000000	78.655149
3754.000000	77.996536
3752.000000	77.274098
3750.000000	77.281927
3748.000000	77.558991
3746.000000	77.308066
3744.000000	77.477706
3742.000000	78.495349
3740.000000	79.032440
3738.000000	78.745247
3736.000000	78.460343
3734.000000	78.574950
3732.000000	78.986901
3730.000000	79.471539
3728.000000	79.679048
3726.000000	79.697691
3724.000000	79.770366
3722.000000	79.902178
3720.000000	80.075382
3718.000000	80.223718
3716.000000	80.146199
3714.000000	79.727720
3712.000000	79.443787
3710.000000	79.717580
3708.000000	80.233975
3706.000000	80.542240
3704.000000	80.536578
3702.000000	80.497431
3700.000000	80.657608
3698.000000	80.847236
3696.000000	80.900526
3694.000000	80.744424
3692.000000	80.271577
3690.000000	79.736965
3688.000000	79.864414
3686.000000	80.608130
3684.000000	81.116513
3682.000000	81.168633
3680.000000	80.900255
3678.000000	80.241049
3676.000000	79.752852
3674.000000	79.930582
3672.000000	80.064491
3670.000000	80.201461
3668.000000	80.824260
3666.000000	81.408785
3664.000000	81.625790
3662.000000	81.658899
3660.000000	81.542054
3658.000000	81.247135
3656.000000	81.132120
3654.000000	81.151736
3652.000000	80.717635
3650.000000	80.208867
3648.000000	80.436871
3646.000000	81.153318
3644.000000	81.659046
3642.000000	81.827283
3640.000000	81.868098
3638.000000	81.870404
3636.000000	81.819849
3634.000000	81.679770
3632.000000	81.217624
3630.000000	80.621360
3628.000000	80.761607
3626.000000	81.466571
3624.000000	81.813806
3622.000000	81.622257
3620.000000	81.337196
3618.000000	81.383172
3616.000000	81.547257
3614.000000	81.527305
3612.000000	81.417461
3610.000000	81.341166
3608.000000	81.469499
3606.000000	81.765908
3604.000000	81.931560
3602.000000	81.918629
3600.000000	81.877750
3598.000000	81.841082
3596.000000	81.793419
3594.000000	81.806697
3592.000000	81.790945
3590.000000	81.570952
3588.000000	81.389641
3586.000000	81.544795
3584.000000	81.815395
3582.000000	81.935760
3580.000000	81.946398
3578.000000	81.942069
3576.000000	81.942378
3574.000000	81.942241
3572.000000	81.873807
3570.000000	81.638295
3568.000000	81.402380
3566.000000	81.455634
3564.000000	81.676701
3562.000000	81.805451
3560.000000	81.846843
3558.000000	81.872512
3556.000000	81.861207
3554.000000	81.805944
3552.000000	81.773525
3550.000000	81.756352
3548.000000	81.682267
3546.000000	81.627508
3544.000000	81.676103
3542.000000	81.754941
3540.000000	81.776393
3538.000000	81.742529
3536.000000	81.714173
3534.000000	81.708277
3532.000000	81.671668
3530.000000	81.595930
3528.000000	81.525943
3526.000000	81.476494
3524.000000	81.442970
3522.000000	81.440998
3520.000000	81.445951
3518.000000	81.429845
3516.000000	81.398943
3514.000000	81.351774
3512.000000	81.283505
3510.000000	81.219499
3508.000000	81.182421
3506.000000	81.122458
3504.000000	81.031000
3502.000000	80.983031
3500.000000	80.969931
3498.000000	80.928738
3496.000000	80.871274
3494.000000	80.827308
3492.000000	80.779651
3490.000000	80.715604
3488.000000	80.655775
3486.000000	80.612824
3484.000000	80.565763
3482.000000	80.522293
3480.000000	80.510883
3478.000000	80.516913
3476.000000	80.516325
3474.000000	80.519056
3472.000000	80.527031
3470.000000	80.528912
3468.000000	80.537167
3466.000000	80.566891
3464.000000	80.604088
3462.000000	80.640432
3460.000000	80.683362
3458.000000	80.726119
3456.000000	80.761839
3454.000000	80.791490
3452.000000	80.811128
3450.000000	80.806900
3448.000000	80.793880
3446.000000	80.819900
3444.000000	80.877055
3442.000000	80.941162
3440.000000	81.017853
3438.000000	81.103451
3436.000000	81.202099
3434.000000	81.324611
3432.000000	81.465377
3430.000000	81.609786
3428.000000	81.754510
3426.000000	81.892391
3424.000000	82.009481
3422.000000	82.110426
3420.000000	82.220380
3418.000000	82.339032
3416.000000	82.441816
3414.000000	82.523885
3412.000000	82.596043
3410.000000	82.662229
3408.000000	82.723167
3406.000000	82.779725
3404.000000	82.828492
3402.000000	82.872387
3400.000000	82.928115
3398.000000	83.005278
3396.000000	83.087842
3394.000000	83.154055
3392.000000	83.217599
3390.000000	83.300261
3388.000000	83.381853
3386.000000	83.445408
3384.000000	83.504829
3382.000000	83.565557
3380.000000	83.621391
3378.000000	83.671522
3376.000000	83.721628
3374.000000	83.770738
3372.000000	83.806636
3370.000000	83.830277
3368.000000	83.866075
3366.000000	83.918607
3364.000000	83.974389
3362.000000	84.025544
3360.000000	84.071490
3358.000000	84.114674
3356.000000	84.158439
3354.000000	84.201794
3352.000000	84.239762
3350.000000	84.279231
3348.000000	84.327489
3346.000000	84.374204
3344.000000	84.414172
3342.000000	84.450968
3340.000000	84.484440
3338.000000	84.518512
3336.000000	84.562597
3334.000000	84.611169
3332.000000	84.654998
3330.000000	84.692370
3328.000000	84.724251
3326.000000	84.755576
3324.000000	84.794807
3322.000000	84.837913
3320.000000	84.877541
3318.000000	84.912943
3316.000000	84.945288
3314.000000	84.975439
3312.000000	85.003901
3310.000000	85.027656
3308.000000	85.048835
3306.000000	85.076296
3304.000000	85.121912
3302.000000	85.176664
3300.000000	85.220268
3298.000000	85.253303
3296.000000	85.283341
3294.000000	85.311501
3292.000000	85.343586
3290.000000	85.386515
3288.000000	85.433618
3286.000000	85.475552
3284.000000	85.513867
3282.000000	85.551541
3280.000000	85.587516
3278.000000	85.619007
3276.000000	85.648604
3274.000000	85.681616
3272.000000	85.719788
3270.000000	85.766291
3268.000000	85.818119
3266.000000	85.865127
3264.000000	85.909936
3262.000000	85.953368
3260.000000	85.995483
3258.000000	86.036849
3256.000000	86.077158
3254.000000	86.122901
3252.000000	86.176780
3250.000000	86.226962
3248.000000	86.268192
3246.000000	86.308781
3244.000000	86.361438
3242.000000	86.418458
3240.000000	86.470030
3238.000000	86.517679
3236.000000	86.561562
3234.000000	86.602134
3232.000000	86.652531
3230.000000	86.711030
3228.000000	86.767034
3226.000000	86.819849
3224.000000	86.869741
3222.000000	86.914374
3220.000000	86.958680
3218.000000	87.008186
3216.000000	87.057138
3214.000000	87.105433
3212.000000	87.157928
3210.000000	87.211738
3208.000000	87.271097
3206.000000	87.335793
3204.000000	87.404030
3202.000000	87.472974
3200.000000	87.539467
3198.000000	87.608056
3196.000000	87.685753
3194.000000	87.764964
3192.000000	87.840136
3190.000000	87.913125
3188.000000	87.984322
3186.000000	88.052877
3184.000000	88.124173
3182.000000	88.196050
3180.000000	88.264016
3178.000000	88.333046
3176.000000	88.409196
3174.000000	88.485313
3172.000000	88.558974
3170.000000	88.632531
3168.000000	88.707754
3166.000000	88.783462
3164.000000	88.860797
3162.000000	88.938659
3160.000000	89.017075
3158.000000	89.095111
3156.000000	89.171886
3154.000000	89.241925
3152.000000	89.314227
3150.000000	89.400931
3148.000000	89.488314
3146.000000	89.566532
3144.000000	89.640796
3142.000000	89.711856
3140.000000	89.781680
3138.000000	89.853417
3136.000000	89.924396
3134.000000	89.989776
3132.000000	90.058149
3130.000000	90.127044
3128.000000	90.191694
3126.000000	90.254755
3124.000000	90.312746
3122.000000	90.360921
3120.000000	90.406722
3118.000000	90.454400
3116.000000	90.509983
3114.000000	90.576701
3112.000000	90.641421
3110.000000	90.692749
3108.000000	90.744644
3106.000000	90.804693
3104.000000	90.863552
3102.000000	90.919786
3100.000000	90.984567
3098.000000	91.052717
3096.000000	91.118601
3094.000000	91.186836
3092.000000	91.251981
3090.000000	91.310209
3088.000000	91.367568
3086.000000	91.419717
3084.000000	91.465147
3082.000000	91.505709
3080.000000	91.541777
3078.000000	91.581080
3076.000000	91.627585
3074.000000	91.662917
3072.000000	91.681738
3070.000000	91.689330
3068.000000	91.691529
3066.000000	91.705433
3064.000000	91.743962
3062.000000	91.796660
3060.000000	91.852652
3058.000000	91.906228
3056.000000	91.966535
3054.000000	92.033246
3052.000000	92.091683
3050.000000	92.140770
3048.000000	92.191584
3046.000000	92.235505
3044.000000	92.265323
3042.000000	92.289901
3040.000000	92.317045
3038.000000	92.337288
3036.000000	92.345774
3034.000000	92.342040
3032.000000	92.328185
3030.000000	92.299964
3028.000000	92.237600
3026.000000	92.128737
3024.000000	91.998053
3022.000000	91.880943
3020.000000	91.816419
3018.000000	91.842369
3016.000000	91.980083
3014.000000	92.212774
3012.000000	92.499490
3010.000000	92.783125
3008.000000	93.016921
3006.000000	93.181652
3004.000000	93.295051
3002.000000	93.377461
3000.000000	93.436576
2998.000000	93.476355
2996.000000	93.505155
2994.000000	93.524423
2992.000000	93.536697
2990.000000	93.540468
2988.000000	93.527581
2986.000000	93.492005
2984.000000	93.432905
2982.000000	93.344583
2980.000000	93.223124
2978.000000	93.057646
2976.000000	92.831931
2974.000000	92.526635
2972.000000	92.130685
2970.000000	91.645585
2968.000000	91.118067
2966.000000	90.630697
2964.000000	90.271982
2962.000000	90.098730
2960.000000	90.113453
2958.000000	90.256367
2956.000000	90.450398
2954.000000	90.635660
2952.000000	90.780588
2950.000000	90.851402
2948.000000	90.814269
2946.000000	90.648979
2944.000000	90.354509
2942.000000	89.943049
2940.000000	89.448901
2938.000000	88.932025
2936.000000	88.456997
2934.000000	88.034842
2932.000000	87.634391
2930.000000	87.242254
2928.000000	86.912532
2926.000000	86.746668
2924.000000	86.853330
2922.000000	87.274924
2920.000000	87.953603
2918.000000	88.773246
2916.000000	89.628061
2914.000000	90.432771
2912.000000	91.129347
2910.000000	91.687282
2908.000000	92.120301
2906.000000	92.468965
2904.000000	92.772551
2902.000000	93.048919
2900.000000	93.306266
2898.000000	93.546625
2896.000000	93.773482
2894.000000	93.989525
2892.000000	94.195905
2890.000000	94.384279
2888.000000	94.547766
2886.000000	94.676739
2884.000000	94.765059
2882.000000	94.807225
2880.000000	94.804765
2878.000000	94.752168
2876.000000	94.639317
2874.000000	94.458069
2872.000000	94.203287
2870.000000	93.843075
2868.000000	93.354224
2866.000000	92.775900
2864.000000	92.231004
2862.000000	91.873715
2860.000000	91.796073
2858.000000	91.963715
2856.000000	92.269176
2854.000000	92.630853
2852.000000	93.046530
2850.000000	93.553421
2848.000000	94.157899
2846.000000	94.779905
2844.000000	95.324925
2842.000000	95.759178
2840.000000	96.098487
2838.000000	96.369265
2836.000000	96.593560
2834.000000	96.777763
2832.000000	96.934090
2830.000000	97.070144
2828.000000	97.192644
2826.000000	97.303372
2824.000000	97.406677
2822.000000	97.500169
2820.000000	97.584801
2818.000000	97.661925
2816.000000	97.733299
2814.000000	97.797335
2812.000000	97.856494
2810.000000	97.910075
2808.000000	97.961631
2806.000000	98.008551
2804.000000	98.054735
2802.000000	98.099119
2800.000000	98.140989
2798.000000	98.180755
2796.000000	98.221781
2794.000000	98.262789
2792.000000	98.308969
2790.000000	98.364129
2788.000000	98.434598
2786.000000	98.516287
2784.000000	98.603150
2782.000000	98.684953
2780.000000	98.760305
2778.000000	98.826819
2776.000000	98.886972
2774.000000	98.943788
2772.000000	99.000641
2770.000000	99.053625
2768.000000	99.105055
2766.000000	99.153226
2764.000000	99.200291
2762.000000	99.245560
2760.000000	99.290870
2758.000000	99.333544
2756.000000	99.376902
2754.000000	99.418091
2752.000000	99.458215
2750.000000	99.495392
2748.000000	99.532373
2746.000000	99.568292
2744.000000	99.605257
2742.000000	99.640380
2740.000000	99.674978
2738.000000	99.707734
2736.000000	99.742111
2734.000000	99.776139
2732.000000	99.809868
2730.000000	99.841489
2728.000000	99.874352
2726.000000	99.905254
2724.000000	99.936879
2722.000000	99.967640
2720.000000	99.998881
2718.000000	100.028735
2716.000000	100.058179
2714.000000	100.084749
2712.000000	100.110596
2710.000000	100.133393
2708.000000	100.157810
2706.000000	100.183017
2704.000000	100.213288
2702.000000	100.249192
2700.000000	100.293168
2698.000000	100.338975
2696.000000	100.385028
2694.000000	100.428627
2692.000000	100.472877
2690.000000	100.514182
2688.000000	100.555062
2686.000000	100.594634
2684.000000	100.634062
2682.000000	100.669355
2680.000000	100.704454
2678.000000	100.737577
2676.000000	100.770725
2674.000000	100.802633
2672.000000	100.833789
2670.000000	100.862244
2668.000000	100.891562
2666.000000	100.919235
2664.000000	100.948079
2662.000000	100.976456
2660.000000	101.006123
2658.000000	101.036085
2656.000000	101.068528
2654.000000	101.103622
2652.000000	101.143643
2650.000000	101.182510
2648.000000	101.221779
2646.000000	101.260422
2644.000000	101.299164
2642.000000	101.334302
2640.000000	101.370289
2638.000000	101.404954
2636.000000	101.438156
2634.000000	101.468641
2632.000000	101.500190
2630.000000	101.528748
2628.000000	101.556736
2626.000000	101.582948
2624.000000	101.611446
2622.000000	101.638515
2620.000000	101.666488
2618.000000	101.693202
2616.000000	101.719649
2614.000000	101.743635
2612.000000	101.767303
2610.000000	101.787663
2608.000000	101.807878
2606.000000	101.824729
2604.000000	101.840057
2602.000000	101.852097
2600.000000	101.862534
2598.000000	101.869410
2596.000000	101.879090
2594.000000	101.893500
2592.000000	101.916750
2590.000000	101.948985
2588.000000	101.992137
2586.000000	102.041223
2584.000000	102.098813
2582.000000	102.159695
2580.000000	102.221838
2578.000000	102.279308
2576.000000	102.332201
2574.000000	102.379843
2572.000000	102.424979
2570.000000	102.463706
2568.000000	102.499988
2566.000000	102.533507
2564.000000	102.567527
2562.000000	102.597010
2560.000000	102.625253
2558.000000	102.652146
2556.000000	102.679148
2554.000000	102.704686
2552.000000	102.731268
2550.000000	102.756274
2548.000000	102.782671
2546.000000	102.808045
2544.000000	102.834768
2542.000000	102.859434
2540.000000	102.886274
2538.000000	102.912119
2536.000000	102.938807
2534.000000	102.963886
2532.000000	102.990093
2530.000000	103.014241
2528.000000	103.039218
2526.000000	103.062777
2524.000000	103.087434
2522.000000	103.110346
2520.000000	103.134648
2518.000000	103.157103
2516.000000	103.180843
2514.000000	103.203045
2512.000000	103.226543
2510.000000	103.247469
2508.000000	103.268165
2506.000000	103.287250
2504.000000	103.308212
2502.000000	103.327115
2500.000000	103.349775
2498.000000	103.374464
2496.000000	103.401510
2494.000000	103.427062
2492.000000	103.454033
2490.000000	103.479340
2488.000000	103.505124
2486.000000	103.528827
2484.000000	103.555813
2482.000000	103.580873
2480.000000	103.606738
2478.000000	103.629731
2476.000000	103.651454
2474.000000	103.670049
2472.000000	103.690309
2470.000000	103.708567
2468.000000	103.726708
2466.000000	103.742276
2464.000000	103.759000
2462.000000	103.774138
2460.000000	103.790229
2458.000000	103.805236
2456.000000	103.823749
2454.000000	103.839389
2452.000000	103.854965
2450.000000	103.870009
2448.000000	103.887181
2446.000000	103.902776
2444.000000	103.918851
2442.000000	103.932701
2440.000000	103.948221
2438.000000	103.962123
2436.000000	103.976999
2434.000000	103.989360
2432.000000	104.002646
2430.000000	104.012675
2428.000000	104.023180
2426.000000	104.035158
2424.000000	104.052806
2422.000000	104.068925
2420.000000	104.083521
2418.000000	104.094185
2416.000000	104.105877
2414.000000	104.116059
2412.000000	104.128826
2410.000000	104.139865
2408.000000	104.151976
2406.000000	104.163583
2404.000000	104.178688
2402.000000	104.192553
2400.000000	104.208778
2398.000000	104.224878
2396.000000	104.243290
2394.000000	104.258369
2392.000000	104.274901
2390.000000	104.289627
2388.000000	104.301829
2386.000000	104.302714
2384.000000	104.288146
2382.000000	104.243639
2380.000000	104.158756
2378.000000	104.018978
2376.000000	103.823651
2374.000000	103.573900
2372.000000	103.285885
2370.000000	102.977994
2368.000000	102.686970
2366.000000	102.443194
2364.000000	102.281736
2362.000000	102.225850
2360.000000	102.292482
2358.000000	102.477115
2356.000000	102.774958
2354.000000	103.163381
2352.000000	103.596796
2350.000000	103.912046
2348.000000	103.896056
2346.000000	103.611770
2344.000000	103.309309
2342.000000	103.090145
2340.000000	102.963873
2338.000000	102.907630
2336.000000	102.905408
2334.000000	102.941019
2332.000000	103.012911
2330.000000	103.117087
2328.000000	103.248744
2326.000000	103.390409
2324.000000	103.537200
2322.000000	103.682545
2320.000000	103.824375
2318.000000	103.951183
2316.000000	104.065640
2314.000000	104.166072
2312.000000	104.255044
2310.000000	104.328617
2308.000000	104.392610
2306.000000	104.442399
2304.000000	104.482937
2302.000000	104.514308
2300.000000	104.544318
2298.000000	104.567747
2296.000000	104.587974
2294.000000	104.603074
2292.000000	104.620063
2290.000000	104.634892
2288.000000	104.648942
2286.000000	104.656933
2284.000000	104.664204
2282.000000	104.664847
2280.000000	104.663090
2278.000000	104.656843
2276.000000	104.651817
2274.000000	104.644027
2272.000000	104.639271
2270.000000	104.632413
2268.000000	104.627833
2266.000000	104.621772
2264.000000	104.619271
2262.000000	104.615826
2260.000000	104.615323
2258.000000	104.612554
2256.000000	104.612648
2254.000000	104.613304
2252.000000	104.620005
2250.000000	104.624778
2248.000000	104.631545
2246.000000	104.637989
2244.000000	104.649793
2242.000000	104.661019
2240.000000	104.674836
2238.000000	104.686776
2236.000000	104.702026
2234.000000	104.713917
2232.000000	104.729162
2230.000000	104.741602
2228.000000	104.753704
2226.000000	104.762716
2224.000000	104.773965
2222.000000	104.781583
2220.000000	104.790734
2218.000000	104.796668
2216.000000	104.804171
2214.000000	104.807493
2212.000000	104.813447
2210.000000	104.817458
2208.000000	104.823548
2206.000000	104.826866
2204.000000	104.833241
2202.000000	104.836661
2200.000000	104.841403
2198.000000	104.842622
2196.000000	104.846451
2194.000000	104.846820
2192.000000	104.849072
2190.000000	104.848719
2188.000000	104.849518
2186.000000	104.846775
2184.000000	104.847542
2182.000000	104.844982
2180.000000	104.844864
2178.000000	104.842210
2176.000000	104.841164
2174.000000	104.831824
2172.000000	104.808872
2170.000000	104.781886
2168.000000	104.792561
2166.000000	104.814590
2164.000000	104.823303
2162.000000	104.820987
2160.000000	104.820173
2158.000000	104.816993
2156.000000	104.818781
2154.000000	104.817234
2152.000000	104.815810
2150.000000	104.809976
2148.000000	104.809229
2146.000000	104.809507
2144.000000	104.812139
2142.000000	104.808459
2140.000000	104.805554
2138.000000	104.799590
2136.000000	104.798416
2134.000000	104.796863
2132.000000	104.797943
2130.000000	104.794873
2128.000000	104.793539
2126.000000	104.791874
2124.000000	104.794123
2122.000000	104.794437
2120.000000	104.796552
2118.000000	104.796823
2116.000000	104.799794
2114.000000	104.804332
2112.000000	104.816644
2110.000000	104.828069
2108.000000	104.841349
2106.000000	104.851959
2104.000000	104.864034
2102.000000	104.873560
2100.000000	104.887548
2098.000000	104.899083
2096.000000	104.913524
2094.000000	104.923062
2092.000000	104.933090
2090.000000	104.940333
2088.000000	104.960365
2086.000000	104.977899
2084.000000	104.997372
2082.000000	105.009620
2080.000000	105.026242
2078.000000	105.040170
2076.000000	105.058056
2074.000000	105.072330
2072.000000	105.091885
2070.000000	105.107628
2068.000000	105.122042
2066.000000	105.123970
2064.000000	105.147877
2062.000000	105.181249
2060.000000	105.208097
2058.000000	105.228733
2056.000000	105.251476
2054.000000	105.270463
2052.000000	105.293523
2050.000000	105.311573
2048.000000	105.331904
2046.000000	105.348211
2044.000000	105.361807
2042.000000	105.367316
2040.000000	105.391089
2038.000000	105.413610
2036.000000	105.429388
2034.000000	105.436525
2032.000000	105.435999
2030.000000	105.416808
2028.000000	105.427936
2026.000000	105.462780
2024.000000	105.485231
2022.000000	105.491169
2020.000000	105.485131
2018.000000	105.466223
2016.000000	105.493363
2014.000000	105.543469
2012.000000	105.574181
2010.000000	105.586813
2008.000000	105.601438
2006.000000	105.613544
2004.000000	105.627139
2002.000000	105.633269
2000.000000	105.636633
1998.000000	105.637271
1996.000000	105.635958
1994.000000	105.577196
1992.000000	105.526008
1990.000000	105.565951
1988.000000	105.611190
1986.000000	105.627459
1984.000000	105.629969
1982.000000	105.618316
1980.000000	105.608543
1978.000000	105.593248
1976.000000	105.578793
1974.000000	105.561213
1972.000000	105.543275
1970.000000	105.495429
1968.000000	105.421836
1966.000000	105.405784
1964.000000	105.427792
1962.000000	105.376427
1960.000000	105.256706
1958.000000	105.223809
1956.000000	105.300919
1954.000000	105.327570
1952.000000	105.312759
1950.000000	105.277695
1948.000000	105.248000
1946.000000	105.185865
1944.000000	105.062262
1942.000000	105.014750
1940.000000	105.120106
1938.000000	105.158967
1936.000000	105.140003
1934.000000	105.105644
1932.000000	105.081625
1930.000000	105.053138
1928.000000	105.025941
1926.000000	104.954911
1924.000000	104.832261
1922.000000	104.767708
1920.000000	104.646250
1918.000000	104.485412
1916.000000	104.628844
1914.000000	104.733220
1912.000000	104.667312
1910.000000	104.559092
1908.000000	104.526835
1906.000000	104.510868
1904.000000	104.476151
1902.000000	104.421910
1900.000000	104.379827
1898.000000	104.306934
1896.000000	104.223779
1894.000000	104.188403
1892.000000	104.125071
1890.000000	103.982284
1888.000000	104.039569
1886.000000	104.127990
1884.000000	104.134648
1882.000000	104.119103
1880.000000	104.103798
1878.000000	104.073420
1876.000000	104.054344
1874.000000	104.010005
1872.000000	103.823909
1870.000000	103.438801
1868.000000	103.401316
1866.000000	103.683800
1864.000000	103.835235
1862.000000	103.822483
1860.000000	103.789214
1858.000000	103.755269
1856.000000	103.738101
1854.000000	103.701525
1852.000000	103.664414
1850.000000	103.571678
1848.000000	103.382627
1846.000000	102.842617
1844.000000	102.515102
1842.000000	102.991931
1840.000000	103.320562
1838.000000	103.268899
1836.000000	103.220035
1834.000000	103.145143
1832.000000	102.818544
1830.000000	102.486768
1828.000000	102.574896
1826.000000	102.545393
1824.000000	102.580613
1822.000000	102.747750
1820.000000	102.742692
1818.000000	102.646275
1816.000000	102.587953
1814.000000	102.486198
1812.000000	102.284878
1810.000000	102.167012
1808.000000	102.184118
1806.000000	102.132134
1804.000000	101.931272
1802.000000	101.603619
1800.000000	101.456919
1798.000000	101.501905
1796.000000	101.364701
1794.000000	100.714242
1792.000000	100.366369
1790.000000	100.807008
1788.000000	101.058941
1786.000000	100.823325
1784.000000	100.673979
1782.000000	100.589538
1780.000000	100.489476
1778.000000	100.457100
1776.000000	100.125137
1774.000000	99.188255
1772.000000	98.729630
1770.000000	99.197651
1768.000000	99.475987
1766.000000	99.754689
1764.000000	99.587802
1762.000000	99.162180
1760.000000	99.236119
1758.000000	99.174706
1756.000000	99.046097
1754.000000	98.823220
1752.000000	98.016036
1750.000000	97.771613
1748.000000	98.065123
1746.000000	98.189065
1744.000000	98.053514
1742.000000	97.671342
1740.000000	97.294347
1738.000000	97.282724
1736.000000	96.261078
1734.000000	95.210313
1732.000000	96.238230
1730.000000	97.220638
1728.000000	97.481977
1726.000000	97.493687
1724.000000	97.385930
1722.000000	97.190282
1720.000000	96.198047
1718.000000	94.816934
1716.000000	95.098964
1714.000000	96.152787
1712.000000	96.691886
1710.000000	96.656336
1708.000000	96.287298
1706.000000	95.823073
1704.000000	95.581026
1702.000000	94.286872
1700.000000	93.323418
1698.000000	93.699948
1696.000000	93.614242
1694.000000	94.844751
1692.000000	95.930575
1690.000000	95.867398
1688.000000	95.332816
1686.000000	93.572393
1684.000000	92.903350
1682.000000	94.503301
1680.000000	95.436719
1678.000000	95.249552
1676.000000	94.499875
1674.000000	94.511941
1672.000000	94.599654
1670.000000	94.139679
1668.000000	94.448937
1666.000000	94.898192
1664.000000	94.533524
1662.000000	94.359698
1660.000000	94.678552
1658.000000	94.587895
1656.000000	93.130347
1654.000000	90.401544
1652.000000	90.624035
1650.000000	92.808457
1648.000000	92.682516
1646.000000	92.307237
1644.000000	93.157731
1642.000000	93.664860
1640.000000	93.412987
1638.000000	92.417390
1636.000000	91.249901
1634.000000	91.807778
1632.000000	92.715762
1630.000000	92.563790
1628.000000	92.120891
1626.000000	91.686732
1624.000000	91.022257
1622.000000	90.745518
1620.000000	90.396990
1618.000000	89.036595
1616.000000	88.480905
1614.000000	89.050261
1612.000000	88.802198
1610.000000	88.159561
1608.000000	87.835192
1606.000000	87.889768
1604.000000	88.088182
1602.000000	88.336786
1600.000000	88.587746
1598.000000	88.796330
1596.000000	88.927325
1594.000000	89.041287
1592.000000	89.121388
1590.000000	89.133399
1588.000000	89.103478
1586.000000	89.039843
1584.000000	88.961853
1582.000000	88.906227
1580.000000	88.704548
1578.000000	87.627362
1576.000000	86.868204
1574.000000	87.868210
1572.000000	88.196341
1570.000000	87.646143
1568.000000	87.761504
1566.000000	87.906809
1564.000000	87.577055
1562.000000	86.142501
1560.000000	83.747649
1558.000000	83.792668
1556.000000	85.519333
1554.000000	86.454146
1552.000000	87.154328
1550.000000	87.531077
1548.000000	87.720165
1546.000000	87.474124
1544.000000	86.883564
1542.000000	85.874164
1540.000000	85.304115
1538.000000	86.832010
1536.000000	88.345385
1534.000000	88.340113
1532.000000	88.719065
1530.000000	89.112901
1528.000000	88.860638
1526.000000	88.477473
1524.000000	88.006519
1522.000000	87.124994
1520.000000	87.311830
1518.000000	87.838951
1516.000000	87.901646
1514.000000	87.968097
1512.000000	87.757124
1510.000000	87.075505
1508.000000	85.324474
1506.000000	84.522461
1504.000000	85.430480
1502.000000	85.003428
1500.000000	82.445935
1498.000000	78.934170
1496.000000	76.407400
1494.000000	76.257470
1492.000000	77.340229
1490.000000	78.953123
1488.000000	80.964763
1486.000000	82.714782
1484.000000	83.866858
1482.000000	84.379646
1480.000000	84.615214
1478.000000	84.459490
1476.000000	83.931366
1474.000000	83.156657
1472.000000	82.984378
1470.000000	83.572562
1468.000000	83.555734
1466.000000	82.815402
1464.000000	82.420030
1462.000000	82.280122
1460.000000	81.118530
1458.000000	78.964305
1456.000000	77.989530
1454.000000	78.193529
1452.000000	77.920744
1450.000000	77.963930
1448.000000	78.738698
1446.000000	79.790098
1444.000000	80.344589
1442.000000	80.472133
1440.000000	80.287762
1438.000000	79.609134
1436.000000	79.513060
1434.000000	80.261178
1432.000000	80.427967
1430.000000	80.329581
1428.000000	80.403251
1426.000000	80.431051
1424.000000	80.281913
1422.000000	79.943192
1420.000000	79.157216
1418.000000	79.162541
1416.000000	79.620899
1414.000000	79.611275
1412.000000	79.261822
1410.000000	78.741279
1408.000000	77.975128
1406.000000	77.099488
1404.000000	76.627159
1402.000000	76.663306
1400.000000	76.791361
1398.000000	77.178420
1396.000000	77.512857
1394.000000	77.854440
1392.000000	78.332609
1390.000000	78.340053
1388.000000	77.906143
1386.000000	77.682730
1384.000000	77.704643
1382.000000	77.829885
1380.000000	77.916473
1378.000000	77.844671
1376.000000	77.631974
1374.000000	77.460539
1372.000000	77.487838
1370.000000	77.428252
1368.000000	77.274366
1366.000000	77.106966
1364.000000	76.798529
1362.000000	76.584657
1360.000000	76.564115
1358.000000	76.487148
1356.000000	76.295801
1354.000000	76.091047
1352.000000	75.889789
1350.000000	75.673554
1348.000000	75.456549
1346.000000	75.233134
1344.000000	74.981041
1342.000000	74.669078
1340.000000	74.360284
1338.000000	74.231707
1336.000000	74.206189
1334.000000	74.142109
1332.000000	73.996995
1330.000000	73.804647
1328.000000	73.582537
1326.000000	73.340179
1324.000000	73.073554
1322.000000	72.781871
1320.000000	72.458736
1318.000000	72.156468
1316.000000	71.869589
1314.000000	71.561330
1312.000000	71.252330
1310.000000	70.948830
1308.000000	70.623733
1306.000000	70.294615
1304.000000	69.954965
1302.000000	69.612264
1300.000000	69.266962
1298.000000	68.918761
1296.000000	68.560835
1294.000000	68.196865
1292.000000	67.812797
1290.000000	67.415772
1288.000000	67.010739
1286.000000	66.611738
1284.000000	66.200756
1282.000000	65.770629
1280.000000	65.313440
1278.000000	64.826691
1276.000000	64.286547
1274.000000	63.669006
1272.000000	62.934915
1270.000000	62.048622
1268.000000	60.943898
1266.000000	59.623490
1264.000000	58.248980
1262.000000	57.143988
1260.000000	56.589879
1258.000000	56.599256
1256.000000	56.892744
1254.000000	57.139374
1252.000000	57.137025
1250.000000	56.894134
1248.000000	56.498406
1246.000000	56.026535
1244.000000	55.516641
1242.000000	55.001497
1240.000000	54.490544
1238.000000	53.997414
1236.000000	53.520080
1234.000000	53.057911
1232.000000	52.602539
1230.000000	52.154894
1228.000000	51.705221
1226.000000	51.251955
1224.000000	50.791681
1222.000000	50.321482
1220.000000	49.827773
1218.000000	49.315469
1216.000000	48.793089
1214.000000	48.277729
1212.000000	47.782707
1210.000000	47.329040
1208.000000	46.911622
1206.000000	46.514591
1204.000000	46.116078
1202.000000	45.717428
1200.000000	45.322951
1198.000000	44.935806
1196.000000	44.542152
1194.000000	44.135371
1192.000000	43.714349
1190.000000	43.283763
1188.000000	42.839981
1186.000000	42.369386
1184.000000	41.785005
1182.000000	41.054842
1180.000000	40.486399
1178.000000	40.237708
1176.000000	40.006013
1174.000000	39.650215
1172.000000	39.222767
1170.000000	38.773207
1168.000000	38.306400
1166.000000	37.832693
1164.000000	37.362337
1162.000000	36.900960
1160.000000	36.442678
1158.000000	36.006140
1156.000000	35.584455
1154.000000	35.165375
1152.000000	34.739287
1150.000000	34.317210
1148.000000	33.886048
1146.000000	33.447399
1144.000000	33.018100
1142.000000	32.639866
1140.000000	32.327805
1138.000000	32.014208
1136.000000	31.653586
1134.000000	31.260870
1132.000000	30.844522
1130.000000	30.418108
1128.000000	29.995070
1126.000000	29.577598
1124.000000	29.149433
1122.000000	28.709887
1120.000000	28.257931
1118.000000	27.800104
1116.000000	27.335249
1114.000000	26.868155
1112.000000	26.400370
1110.000000	25.936586
1108.000000	25.479512
1106.000000	25.043196
1104.000000	24.625334
1102.000000	24.214797
1100.000000	23.801858
1098.000000	23.395227
1096.000000	22.997243
1094.000000	22.613890
1092.000000	22.246984
1090.000000	21.894686
1088.000000	21.550071
1086.000000	21.212853
1084.000000	20.867142
1082.000000	20.510442
1080.000000	20.172476
1078.000000	19.866910
1076.000000	19.589025
1074.000000	19.357677
1072.000000	19.143416
1070.000000	18.918377
1068.000000	18.686577
1066.000000	18.456153
1064.000000	18.224019
1062.000000	17.989098
1060.000000	17.741438
1058.000000	17.457118
1056.000000	17.070172
1054.000000	16.556060
1052.000000	16.046865
1050.000000	15.746392
1048.000000	15.709197
1046.000000	15.791269
1044.000000	15.796009
1042.000000	15.680547
1040.000000	15.494849
1038.000000	15.282222
1036.000000	15.054532
1034.000000	14.814895
1032.000000	14.565491
1030.000000	14.310269
1028.000000	14.045925
1026.000000	13.775969
1024.000000	13.502422
1022.000000	13.234268
1020.000000	12.978686
1018.000000	12.744240
1016.000000	12.530928
1014.000000	12.340981
1012.000000	12.171406
1010.000000	12.012666
1008.000000	11.846861
1006.000000	11.667615
1004.000000	11.472042
1002.000000	11.260580
1000.000000	11.031720
