PE IR       SUBTECH     SPECTRUM    ASCII       PEDS        4.00        
   -1
TE110A_093_160K_BG.ASC
20/05/14
17:01:03.00
20/05/14
17:01:03.00
Administrator
TE110A.Thursday, May 14 2020, 003.
1000.000000
#HDR
-1
-1
#GR
cm-1
EGY
1.0
0.0
6000.000000
-2.000000
2501
8
105.798903
11.041222
#DATA
6000.000000	16.921969
5998.000000	16.955083
5996.000000	16.988848
5994.000000	17.022994
5992.000000	17.056563
5990.000000	17.089408
5988.000000	17.122054
5986.000000	17.154186
5984.000000	17.186816
5982.000000	17.221422
5980.000000	17.256035
5978.000000	17.290503
5976.000000	17.324559
5974.000000	17.359269
5972.000000	17.393107
5970.000000	17.426312
5968.000000	17.458868
5966.000000	17.492828
5964.000000	17.528008
5962.000000	17.563926
5960.000000	17.599665
5958.000000	17.634208
5956.000000	17.668097
5954.000000	17.702748
5952.000000	17.738156
5950.000000	17.772305
5948.000000	17.806220
5946.000000	17.839928
5944.000000	17.874272
5942.000000	17.909187
5940.000000	17.943405
5938.000000	17.977616
5936.000000	18.010529
5934.000000	18.043685
5932.000000	18.077952
5930.000000	18.113626
5928.000000	18.148253
5926.000000	18.182847
5924.000000	18.217643
5922.000000	18.254800
5920.000000	18.291195
5918.000000	18.327766
5916.000000	18.363843
5914.000000	18.400624
5912.000000	18.437776
5910.000000	18.475270
5908.000000	18.512282
5906.000000	18.549679
5904.000000	18.586704
5902.000000	18.623435
5900.000000	18.660279
5898.000000	18.697808
5896.000000	18.735760
5894.000000	18.772975
5892.000000	18.808569
5890.000000	18.844271
5888.000000	18.880082
5886.000000	18.916338
5884.000000	18.952301
5882.000000	18.988460
5880.000000	19.023792
5878.000000	19.059521
5876.000000	19.095586
5874.000000	19.133152
5872.000000	19.169896
5870.000000	19.207422
5868.000000	19.244291
5866.000000	19.282416
5864.000000	19.319705
5862.000000	19.357912
5860.000000	19.396088
5858.000000	19.435125
5856.000000	19.473115
5854.000000	19.511487
5852.000000	19.550475
5850.000000	19.590411
5848.000000	19.629383
5846.000000	19.668345
5844.000000	19.706827
5842.000000	19.747472
5840.000000	19.789750
5838.000000	19.833371
5836.000000	19.876251
5834.000000	19.918421
5832.000000	19.959835
5830.000000	20.002080
5828.000000	20.043764
5826.000000	20.085269
5824.000000	20.126018
5822.000000	20.167003
5820.000000	20.208436
5818.000000	20.251125
5816.000000	20.292978
5814.000000	20.334533
5812.000000	20.374984
5810.000000	20.415288
5808.000000	20.455927
5806.000000	20.497951
5804.000000	20.539810
5802.000000	20.580863
5800.000000	20.620351
5798.000000	20.661283
5796.000000	20.702756
5794.000000	20.744469
5792.000000	20.785655
5790.000000	20.827612
5788.000000	20.868526
5786.000000	20.909046
5784.000000	20.950257
5782.000000	20.994290
5780.000000	21.038294
5778.000000	21.080965
5776.000000	21.121173
5774.000000	21.162644
5772.000000	21.204872
5770.000000	21.248066
5768.000000	21.290533
5766.000000	21.332904
5764.000000	21.374990
5762.000000	21.416034
5760.000000	21.456744
5758.000000	21.498945
5756.000000	21.542259
5754.000000	21.586057
5752.000000	21.628005
5750.000000	21.671810
5748.000000	21.714349
5746.000000	21.756311
5744.000000	21.796600
5742.000000	21.837503
5740.000000	21.878920
5738.000000	21.920124
5736.000000	21.961351
5734.000000	22.003161
5732.000000	22.043368
5730.000000	22.083991
5728.000000	22.124620
5726.000000	22.166281
5724.000000	22.207732
5722.000000	22.250168
5720.000000	22.292935
5718.000000	22.336233
5716.000000	22.378502
5714.000000	22.422024
5712.000000	22.465286
5710.000000	22.509783
5708.000000	22.555079
5706.000000	22.600303
5704.000000	22.644085
5702.000000	22.688594
5700.000000	22.734836
5698.000000	22.780957
5696.000000	22.825072
5694.000000	22.869999
5692.000000	22.916024
5690.000000	22.963576
5688.000000	23.009347
5686.000000	23.054774
5684.000000	23.100033
5682.000000	23.145494
5680.000000	23.190902
5678.000000	23.237031
5676.000000	23.282530
5674.000000	23.328123
5672.000000	23.372248
5670.000000	23.417984
5668.000000	23.464407
5666.000000	23.511121
5664.000000	23.557130
5662.000000	23.604151
5660.000000	23.651794
5658.000000	23.698256
5656.000000	23.743396
5654.000000	23.788751
5652.000000	23.834266
5650.000000	23.880732
5648.000000	23.926718
5646.000000	23.973710
5644.000000	24.019904
5642.000000	24.065669
5640.000000	24.110284
5638.000000	24.155108
5636.000000	24.200699
5634.000000	24.246907
5632.000000	24.292857
5630.000000	24.338758
5628.000000	24.384224
5626.000000	24.429878
5624.000000	24.475061
5622.000000	24.521174
5620.000000	24.567368
5618.000000	24.612786
5616.000000	24.657433
5614.000000	24.704193
5612.000000	24.751869
5610.000000	24.799615
5608.000000	24.844649
5606.000000	24.889490
5604.000000	24.935040
5602.000000	24.982741
5600.000000	25.030012
5598.000000	25.076054
5596.000000	25.120715
5594.000000	25.168014
5592.000000	25.216157
5590.000000	25.263648
5588.000000	25.308925
5586.000000	25.355622
5584.000000	25.403824
5582.000000	25.452835
5580.000000	25.501058
5578.000000	25.548921
5576.000000	25.596112
5574.000000	25.643582
5572.000000	25.690891
5570.000000	25.738643
5568.000000	25.785937
5566.000000	25.835441
5564.000000	25.885308
5562.000000	25.935247
5560.000000	25.982878
5558.000000	26.030491
5556.000000	26.077516
5554.000000	26.124959
5552.000000	26.172352
5550.000000	26.220653
5548.000000	26.269029
5546.000000	26.317551
5544.000000	26.365397
5542.000000	26.413068
5540.000000	26.459539
5538.000000	26.505871
5536.000000	26.553064
5534.000000	26.603259
5532.000000	26.653751
5530.000000	26.702926
5528.000000	26.748638
5526.000000	26.794225
5524.000000	26.840533
5522.000000	26.888949
5520.000000	26.936627
5518.000000	26.984156
5516.000000	27.031990
5514.000000	27.081762
5512.000000	27.130426
5510.000000	27.176521
5508.000000	27.221513
5506.000000	27.268483
5504.000000	27.318312
5502.000000	27.370327
5500.000000	27.420681
5498.000000	27.467451
5496.000000	27.507723
5494.000000	27.548769
5492.000000	27.593602
5490.000000	27.645410
5488.000000	27.701695
5486.000000	27.760109
5484.000000	27.814952
5482.000000	27.865363
5480.000000	27.908516
5478.000000	27.946182
5476.000000	27.987209
5474.000000	28.038946
5472.000000	28.096622
5470.000000	28.149591
5468.000000	28.197063
5466.000000	28.244087
5464.000000	28.289998
5462.000000	28.338421
5460.000000	28.389775
5458.000000	28.444848
5456.000000	28.500742
5454.000000	28.553602
5452.000000	28.598416
5450.000000	28.635345
5448.000000	28.671885
5446.000000	28.716185
5444.000000	28.764946
5442.000000	28.820667
5440.000000	28.876799
5438.000000	28.927915
5436.000000	28.974557
5434.000000	29.019774
5432.000000	29.062489
5430.000000	29.107563
5428.000000	29.163847
5426.000000	29.232300
5424.000000	29.296975
5422.000000	29.352574
5420.000000	29.401629
5418.000000	29.437603
5416.000000	29.461739
5414.000000	29.491171
5412.000000	29.539803
5410.000000	29.605543
5408.000000	29.673751
5406.000000	29.737717
5404.000000	29.794729
5402.000000	29.846465
5400.000000	29.891670
5398.000000	29.927953
5396.000000	29.961786
5394.000000	30.010592
5392.000000	30.074128
5390.000000	30.135475
5388.000000	30.182157
5386.000000	30.228768
5384.000000	30.284347
5382.000000	30.340267
5380.000000	30.380482
5378.000000	30.417753
5376.000000	30.468219
5374.000000	30.536896
5372.000000	30.606153
5370.000000	30.665694
5368.000000	30.714199
5366.000000	30.759777
5364.000000	30.809189
5362.000000	30.865411
5360.000000	30.921078
5358.000000	30.964077
5356.000000	30.994801
5354.000000	31.032024
5352.000000	31.084339
5350.000000	31.140434
5348.000000	31.179535
5346.000000	31.215921
5344.000000	31.265229
5342.000000	31.318865
5340.000000	31.366827
5338.000000	31.419591
5336.000000	31.485458
5334.000000	31.553256
5332.000000	31.608645
5330.000000	31.655269
5328.000000	31.704483
5326.000000	31.763069
5324.000000	31.827763
5322.000000	31.887525
5320.000000	31.938940
5318.000000	31.988809
5316.000000	32.039898
5314.000000	32.092463
5312.000000	32.140014
5310.000000	32.181778
5308.000000	32.226618
5306.000000	32.281445
5304.000000	32.340210
5302.000000	32.395124
5300.000000	32.446802
5298.000000	32.500450
5296.000000	32.554116
5294.000000	32.599860
5292.000000	32.640633
5290.000000	32.688029
5288.000000	32.743102
5286.000000	32.801812
5284.000000	32.856340
5282.000000	32.911611
5280.000000	32.967433
5278.000000	33.024544
5276.000000	33.081030
5274.000000	33.134099
5272.000000	33.182185
5270.000000	33.227795
5268.000000	33.267103
5266.000000	33.303383
5264.000000	33.347450
5262.000000	33.410061
5260.000000	33.477984
5258.000000	33.531509
5256.000000	33.576488
5254.000000	33.629329
5252.000000	33.681611
5250.000000	33.725119
5248.000000	33.766725
5246.000000	33.821708
5244.000000	33.888231
5242.000000	33.956747
5240.000000	34.020868
5238.000000	34.076218
5236.000000	34.124329
5234.000000	34.170131
5232.000000	34.217567
5230.000000	34.265621
5228.000000	34.308821
5226.000000	34.355174
5224.000000	34.412280
5222.000000	34.477342
5220.000000	34.536662
5218.000000	34.592070
5216.000000	34.648570
5214.000000	34.704171
5212.000000	34.746820
5210.000000	34.776451
5208.000000	34.811104
5206.000000	34.870496
5204.000000	34.945858
5202.000000	35.016317
5200.000000	35.070841
5198.000000	35.121148
5196.000000	35.176100
5194.000000	35.236020
5192.000000	35.292782
5190.000000	35.343917
5188.000000	35.391553
5186.000000	35.442956
5184.000000	35.499303
5182.000000	35.559360
5180.000000	35.617148
5178.000000	35.673518
5176.000000	35.729403
5174.000000	35.785077
5172.000000	35.839331
5170.000000	35.894686
5168.000000	35.948858
5166.000000	36.001383
5164.000000	36.054620
5162.000000	36.111544
5160.000000	36.167738
5158.000000	36.222182
5156.000000	36.276301
5154.000000	36.331603
5152.000000	36.387125
5150.000000	36.444074
5148.000000	36.499830
5146.000000	36.553229
5144.000000	36.604999
5142.000000	36.659115
5140.000000	36.715380
5138.000000	36.772011
5136.000000	36.825891
5134.000000	36.879482
5132.000000	36.934241
5130.000000	36.990979
5128.000000	37.046957
5126.000000	37.102490
5124.000000	37.156510
5122.000000	37.210556
5120.000000	37.264187
5118.000000	37.319640
5116.000000	37.374770
5114.000000	37.430827
5112.000000	37.486342
5110.000000	37.541908
5108.000000	37.595591
5106.000000	37.649609
5104.000000	37.705329
5102.000000	37.762893
5100.000000	37.819535
5098.000000	37.875469
5096.000000	37.931043
5094.000000	37.988376
5092.000000	38.045855
5090.000000	38.103601
5088.000000	38.160448
5086.000000	38.217300
5084.000000	38.273428
5082.000000	38.330428
5080.000000	38.387666
5078.000000	38.445221
5076.000000	38.500637
5074.000000	38.556489
5072.000000	38.613518
5070.000000	38.672040
5068.000000	38.729123
5066.000000	38.787024
5064.000000	38.844333
5062.000000	38.900792
5060.000000	38.956036
5058.000000	39.012917
5056.000000	39.070423
5054.000000	39.127784
5052.000000	39.184315
5050.000000	39.241411
5048.000000	39.298632
5046.000000	39.355474
5044.000000	39.410746
5042.000000	39.467576
5040.000000	39.524287
5038.000000	39.580517
5036.000000	39.635592
5034.000000	39.691680
5032.000000	39.747734
5030.000000	39.804557
5028.000000	39.861479
5026.000000	39.918628
5024.000000	39.974341
5022.000000	40.030799
5020.000000	40.086863
5018.000000	40.143189
5016.000000	40.199483
5014.000000	40.257221
5012.000000	40.314141
5010.000000	40.371301
5008.000000	40.428521
5006.000000	40.487169
5004.000000	40.545431
5002.000000	40.603689
5000.000000	40.659868
4998.000000	40.716547
4996.000000	40.774250
4994.000000	40.833675
4992.000000	40.892864
4990.000000	40.952690
4988.000000	41.011649
4986.000000	41.070549
4984.000000	41.128599
4982.000000	41.187330
4980.000000	41.245703
4978.000000	41.304186
4976.000000	41.362510
4974.000000	41.421887
4972.000000	41.480842
4970.000000	41.540636
4968.000000	41.599565
4966.000000	41.657678
4964.000000	41.714351
4962.000000	41.771636
4960.000000	41.828257
4958.000000	41.885897
4956.000000	41.943558
4954.000000	42.002988
4952.000000	42.061090
4950.000000	42.117814
4948.000000	42.173274
4946.000000	42.231001
4944.000000	42.288673
4942.000000	42.345905
4940.000000	42.402416
4938.000000	42.458725
4936.000000	42.514677
4934.000000	42.572939
4932.000000	42.631118
4930.000000	42.688685
4928.000000	42.745423
4926.000000	42.803395
4924.000000	42.861252
4922.000000	42.919204
4920.000000	42.976470
4918.000000	43.035322
4916.000000	43.093733
4914.000000	43.151587
4912.000000	43.208521
4910.000000	43.266812
4908.000000	43.325199
4906.000000	43.384307
4904.000000	43.443200
4902.000000	43.501542
4900.000000	43.560183
4898.000000	43.621010
4896.000000	43.681509
4894.000000	43.741000
4892.000000	43.800354
4890.000000	43.861747
4888.000000	43.922652
4886.000000	43.982727
4884.000000	44.041155
4882.000000	44.100032
4880.000000	44.159126
4878.000000	44.219336
4876.000000	44.278694
4874.000000	44.338343
4872.000000	44.397861
4870.000000	44.457829
4868.000000	44.516012
4866.000000	44.574717
4864.000000	44.634249
4862.000000	44.693869
4860.000000	44.751421
4858.000000	44.809015
4856.000000	44.866772
4854.000000	44.925936
4852.000000	44.984506
4850.000000	45.043026
4848.000000	45.100982
4846.000000	45.159211
4844.000000	45.215976
4842.000000	45.273571
4840.000000	45.331512
4838.000000	45.390798
4836.000000	45.449741
4834.000000	45.509110
4832.000000	45.567355
4830.000000	45.625072
4828.000000	45.682037
4826.000000	45.740694
4824.000000	45.799455
4822.000000	45.858231
4820.000000	45.917060
4818.000000	45.976249
4816.000000	46.034115
4814.000000	46.093191
4812.000000	46.153257
4810.000000	46.214284
4808.000000	46.274191
4806.000000	46.334777
4804.000000	46.395720
4802.000000	46.456434
4800.000000	46.514846
4798.000000	46.575782
4796.000000	46.638763
4794.000000	46.700625
4792.000000	46.759266
4790.000000	46.819037
4788.000000	46.879626
4786.000000	46.940637
4784.000000	47.001247
4782.000000	47.062031
4780.000000	47.122218
4778.000000	47.183130
4776.000000	47.243561
4774.000000	47.303648
4772.000000	47.362466
4770.000000	47.422571
4768.000000	47.483387
4766.000000	47.544644
4764.000000	47.604025
4762.000000	47.662902
4760.000000	47.721376
4758.000000	47.781385
4756.000000	47.841076
4754.000000	47.899058
4752.000000	47.955359
4750.000000	48.014185
4748.000000	48.074441
4746.000000	48.135209
4744.000000	48.194208
4742.000000	48.252220
4740.000000	48.308924
4738.000000	48.366635
4736.000000	48.424594
4734.000000	48.484199
4732.000000	48.543882
4730.000000	48.603578
4728.000000	48.661617
4726.000000	48.720486
4724.000000	48.779872
4722.000000	48.840382
4720.000000	48.900881
4718.000000	48.962382
4716.000000	49.023567
4714.000000	49.085628
4712.000000	49.148105
4710.000000	49.212051
4708.000000	49.275618
4706.000000	49.339199
4704.000000	49.401793
4702.000000	49.464922
4700.000000	49.527421
4698.000000	49.591326
4696.000000	49.655433
4694.000000	49.719182
4692.000000	49.780237
4690.000000	49.841363
4688.000000	49.903150
4686.000000	49.965266
4684.000000	50.025180
4682.000000	50.086091
4680.000000	50.147986
4678.000000	50.210541
4676.000000	50.272291
4674.000000	50.335028
4672.000000	50.396513
4670.000000	50.457487
4668.000000	50.518048
4666.000000	50.580072
4664.000000	50.641589
4662.000000	50.703143
4660.000000	50.764269
4658.000000	50.826117
4656.000000	50.887061
4654.000000	50.948313
4652.000000	51.009674
4650.000000	51.072346
4648.000000	51.135002
4646.000000	51.197501
4644.000000	51.258327
4642.000000	51.319119
4640.000000	51.379727
4638.000000	51.440849
4636.000000	51.501427
4634.000000	51.562366
4632.000000	51.623423
4630.000000	51.685457
4628.000000	51.747328
4626.000000	51.810406
4624.000000	51.873115
4622.000000	51.934615
4620.000000	51.995921
4618.000000	52.060908
4616.000000	52.126481
4614.000000	52.189802
4612.000000	52.251118
4610.000000	52.315484
4608.000000	52.381393
4606.000000	52.446820
4604.000000	52.511066
4602.000000	52.576652
4600.000000	52.641768
4598.000000	52.707623
4596.000000	52.773818
4594.000000	52.840213
4592.000000	52.904754
4590.000000	52.969532
4588.000000	53.033330
4586.000000	53.097549
4584.000000	53.161135
4582.000000	53.226337
4580.000000	53.291384
4578.000000	53.356048
4576.000000	53.419825
4574.000000	53.485051
4572.000000	53.548911
4570.000000	53.612655
4568.000000	53.676285
4566.000000	53.739216
4564.000000	53.801576
4562.000000	53.866270
4560.000000	53.930577
4558.000000	53.993714
4556.000000	54.056083
4554.000000	54.119980
4552.000000	54.183958
4550.000000	54.247209
4548.000000	54.308999
4546.000000	54.372559
4544.000000	54.436505
4542.000000	54.499725
4540.000000	54.561688
4538.000000	54.625150
4536.000000	54.689270
4534.000000	54.754026
4532.000000	54.817897
4530.000000	54.881562
4528.000000	54.944482
4526.000000	55.008827
4524.000000	55.073901
4522.000000	55.139269
4520.000000	55.202404
4518.000000	55.264961
4516.000000	55.328537
4514.000000	55.394119
4512.000000	55.458992
4510.000000	55.523673
4508.000000	55.588582
4506.000000	55.655130
4504.000000	55.721427
4502.000000	55.788111
4500.000000	55.854521
4498.000000	55.920820
4496.000000	55.986232
4494.000000	56.053240
4492.000000	56.119745
4490.000000	56.185093
4488.000000	56.248597
4486.000000	56.313725
4484.000000	56.379918
4482.000000	56.445434
4480.000000	56.509502
4478.000000	56.574686
4476.000000	56.638555
4474.000000	56.701890
4472.000000	56.765382
4470.000000	56.829855
4468.000000	56.893315
4466.000000	56.955916
4464.000000	57.018268
4462.000000	57.082353
4460.000000	57.145215
4458.000000	57.207243
4456.000000	57.268667
4454.000000	57.330673
4452.000000	57.393034
4450.000000	57.456438
4448.000000	57.519511
4446.000000	57.583877
4444.000000	57.646189
4442.000000	57.707458
4440.000000	57.769327
4438.000000	57.833061
4436.000000	57.895829
4434.000000	57.959074
4432.000000	58.022244
4430.000000	58.085892
4428.000000	58.147814
4426.000000	58.210403
4424.000000	58.274626
4422.000000	58.340566
4420.000000	58.405474
4418.000000	58.469488
4416.000000	58.532683
4414.000000	58.597811
4412.000000	58.662831
4410.000000	58.727403
4408.000000	58.792265
4406.000000	58.859036
4404.000000	58.923981
4402.000000	58.987773
4400.000000	59.052047
4398.000000	59.117238
4396.000000	59.180673
4394.000000	59.243925
4392.000000	59.306164
4390.000000	59.368877
4388.000000	59.432540
4386.000000	59.496463
4384.000000	59.558622
4382.000000	59.621548
4380.000000	59.683489
4378.000000	59.743979
4376.000000	59.803138
4374.000000	59.863279
4372.000000	59.922544
4370.000000	59.981222
4368.000000	60.040835
4366.000000	60.104070
4364.000000	60.166646
4362.000000	60.227073
4360.000000	60.286503
4358.000000	60.348241
4356.000000	60.411291
4354.000000	60.475027
4352.000000	60.538027
4350.000000	60.601729
4348.000000	60.664891
4346.000000	60.728861
4344.000000	60.793951
4342.000000	60.859715
4340.000000	60.922758
4338.000000	60.985317
4336.000000	61.048217
4334.000000	61.111566
4332.000000	61.175205
4330.000000	61.241451
4328.000000	61.306865
4326.000000	61.371477
4324.000000	61.436583
4322.000000	61.503636
4320.000000	61.571434
4318.000000	61.640633
4316.000000	61.708129
4314.000000	61.774907
4312.000000	61.841812
4310.000000	61.910194
4308.000000	61.978871
4306.000000	62.047520
4304.000000	62.114073
4302.000000	62.181243
4300.000000	62.247755
4298.000000	62.312554
4296.000000	62.376135
4294.000000	62.441584
4292.000000	62.506200
4290.000000	62.569191
4288.000000	62.631372
4286.000000	62.694771
4284.000000	62.757158
4282.000000	62.818737
4280.000000	62.878289
4278.000000	62.936377
4276.000000	62.994090
4274.000000	63.054558
4272.000000	63.115101
4270.000000	63.174981
4268.000000	63.234883
4266.000000	63.295751
4264.000000	63.356603
4262.000000	63.418899
4260.000000	63.481625
4258.000000	63.546224
4256.000000	63.611199
4254.000000	63.675749
4252.000000	63.738238
4250.000000	63.800428
4248.000000	63.863692
4246.000000	63.928960
4244.000000	63.993210
4242.000000	64.057672
4240.000000	64.122111
4238.000000	64.186793
4236.000000	64.251220
4234.000000	64.317512
4232.000000	64.383305
4230.000000	64.447528
4228.000000	64.510290
4226.000000	64.574952
4224.000000	64.640090
4222.000000	64.704416
4220.000000	64.767685
4218.000000	64.832913
4216.000000	64.898723
4214.000000	64.964849
4212.000000	65.029863
4210.000000	65.095289
4208.000000	65.161495
4206.000000	65.229416
4204.000000	65.297782
4202.000000	65.366501
4200.000000	65.433355
4198.000000	65.500538
4196.000000	65.568843
4194.000000	65.637387
4192.000000	65.704087
4190.000000	65.772092
4188.000000	65.841460
4186.000000	65.911527
4184.000000	65.979458
4182.000000	66.045387
4180.000000	66.110390
4178.000000	66.176378
4176.000000	66.240760
4174.000000	66.305017
4172.000000	66.369972
4170.000000	66.435686
4168.000000	66.501077
4166.000000	66.566914
4164.000000	66.630641
4162.000000	66.693652
4160.000000	66.757341
4158.000000	66.822533
4156.000000	66.886798
4154.000000	66.951707
4152.000000	67.017720
4150.000000	67.084442
4148.000000	67.149268
4146.000000	67.213828
4144.000000	67.278451
4142.000000	67.343586
4140.000000	67.408523
4138.000000	67.474580
4136.000000	67.540842
4134.000000	67.607300
4132.000000	67.672697
4130.000000	67.740123
4128.000000	67.807853
4126.000000	67.873172
4124.000000	67.936842
4122.000000	68.002717
4120.000000	68.068957
4118.000000	68.135338
4116.000000	68.201576
4114.000000	68.268937
4112.000000	68.335627
4110.000000	68.400809
4108.000000	68.463574
4106.000000	68.527844
4104.000000	68.594089
4102.000000	68.660215
4100.000000	68.722729
4098.000000	68.784795
4096.000000	68.848367
4094.000000	68.913977
4092.000000	68.979602
4090.000000	69.046581
4088.000000	69.115968
4086.000000	69.187788
4084.000000	69.257120
4082.000000	69.324434
4080.000000	69.391710
4078.000000	69.459806
4076.000000	69.527243
4074.000000	69.594284
4072.000000	69.659221
4070.000000	69.723934
4068.000000	69.789439
4066.000000	69.855332
4064.000000	69.919618
4062.000000	69.983651
4060.000000	70.049037
4058.000000	70.116414
4056.000000	70.181532
4054.000000	70.245476
4052.000000	70.310534
4050.000000	70.375877
4048.000000	70.435996
4046.000000	70.493726
4044.000000	70.557882
4042.000000	70.630342
4040.000000	70.702077
4038.000000	70.769180
4036.000000	70.834384
4034.000000	70.901663
4032.000000	70.969331
4030.000000	71.037822
4028.000000	71.103937
4026.000000	71.168368
4024.000000	71.236390
4022.000000	71.307311
4020.000000	71.374108
4018.000000	71.441188
4016.000000	71.512114
4014.000000	71.582998
4012.000000	71.650663
4010.000000	71.716554
4008.000000	71.782726
4006.000000	71.853721
4004.000000	71.924983
4002.000000	71.993877
4000.000000	72.061216
3998.000000	72.125289
3996.000000	72.187283
3994.000000	72.251417
3992.000000	72.314389
3990.000000	72.380356
3988.000000	72.450791
3986.000000	72.518293
3984.000000	72.579429
3982.000000	72.641005
3980.000000	72.703108
3978.000000	72.760304
3976.000000	72.814246
3974.000000	72.874234
3972.000000	72.939017
3970.000000	73.005474
3968.000000	73.072466
3966.000000	73.134309
3964.000000	73.184560
3962.000000	73.237680
3960.000000	73.302717
3958.000000	73.369511
3956.000000	73.432346
3954.000000	73.485379
3952.000000	73.513894
3950.000000	73.538460
3948.000000	73.597395
3946.000000	73.665733
3944.000000	73.711194
3942.000000	73.787355
3940.000000	73.902120
3938.000000	73.994260
3936.000000	74.023187
3934.000000	74.003618
3932.000000	74.029414
3930.000000	74.141641
3928.000000	74.240487
3926.000000	74.283048
3924.000000	74.334308
3922.000000	74.385412
3920.000000	74.383752
3918.000000	74.407082
3916.000000	74.553547
3914.000000	74.748761
3912.000000	74.875458
3910.000000	74.922173
3908.000000	74.838362
3906.000000	74.594362
3904.000000	74.387104
3902.000000	74.398543
3900.000000	74.618969
3898.000000	74.964408
3896.000000	75.213311
3894.000000	75.178069
3892.000000	75.079774
3890.000000	75.151883
3888.000000	75.140135
3886.000000	75.065860
3884.000000	75.206221
3882.000000	75.369397
3880.000000	75.508552
3878.000000	75.690284
3876.000000	75.726762
3874.000000	75.593729
3872.000000	75.342658
3870.000000	75.253926
3868.000000	75.473532
3866.000000	75.649423
3864.000000	75.771659
3862.000000	76.015036
3860.000000	76.215039
3858.000000	75.936425
3856.000000	74.950948
3854.000000	74.266253
3852.000000	74.878141
3850.000000	76.027100
3848.000000	76.656472
3846.000000	76.736093
3844.000000	76.620124
3842.000000	76.404618
3840.000000	76.002725
3838.000000	75.807854
3836.000000	76.162518
3834.000000	76.632695
3832.000000	76.915522
3830.000000	77.124405
3828.000000	77.253636
3826.000000	77.268048
3824.000000	77.043968
3822.000000	76.762222
3820.000000	76.767594
3818.000000	76.750781
3816.000000	76.818251
3814.000000	77.354891
3812.000000	77.826322
3810.000000	77.750343
3808.000000	77.451249
3806.000000	77.418192
3804.000000	77.329431
3802.000000	77.133098
3800.000000	77.420596
3798.000000	77.903942
3796.000000	78.195449
3794.000000	78.428255
3792.000000	78.590396
3790.000000	78.663928
3788.000000	78.690569
3786.000000	78.703683
3784.000000	78.733122
3782.000000	78.719949
3780.000000	78.700733
3778.000000	78.826149
3776.000000	79.009264
3774.000000	79.049562
3772.000000	78.906729
3770.000000	78.809554
3768.000000	78.897882
3766.000000	79.050642
3764.000000	79.189775
3762.000000	79.201261
3760.000000	79.131455
3758.000000	79.173121
3756.000000	79.080972
3754.000000	78.497995
3752.000000	77.858613
3750.000000	77.872493
3748.000000	78.124849
3746.000000	77.905743
3744.000000	78.065447
3742.000000	78.983626
3740.000000	79.470033
3738.000000	79.218032
3736.000000	78.970991
3734.000000	79.083791
3732.000000	79.459753
3730.000000	79.896518
3728.000000	80.085330
3726.000000	80.107356
3724.000000	80.180404
3722.000000	80.305606
3720.000000	80.464418
3718.000000	80.600656
3716.000000	80.537018
3714.000000	80.170601
3712.000000	79.924964
3710.000000	80.176073
3708.000000	80.640801
3706.000000	80.919399
3704.000000	80.920809
3702.000000	80.893379
3700.000000	81.042557
3698.000000	81.216808
3696.000000	81.267968
3694.000000	81.132375
3692.000000	80.715356
3690.000000	80.243528
3688.000000	80.363265
3686.000000	81.033114
3684.000000	81.491232
3682.000000	81.539927
3680.000000	81.300763
3678.000000	80.715510
3676.000000	80.285696
3674.000000	80.448285
3672.000000	80.572843
3670.000000	80.702375
3668.000000	81.264451
3666.000000	81.790108
3664.000000	81.985639
3662.000000	82.016768
3660.000000	81.914927
3658.000000	81.655955
3656.000000	81.558671
3654.000000	81.579419
3652.000000	81.191896
3650.000000	80.737326
3648.000000	80.943225
3646.000000	81.587136
3644.000000	82.043572
3642.000000	82.198462
3640.000000	82.238155
3638.000000	82.241892
3636.000000	82.197618
3634.000000	82.072439
3632.000000	81.659078
3630.000000	81.129751
3628.000000	81.260887
3626.000000	81.893696
3624.000000	82.204429
3622.000000	82.033369
3620.000000	81.778197
3618.000000	81.818345
3616.000000	81.965230
3614.000000	81.949935
3612.000000	81.853930
3610.000000	81.786505
3608.000000	81.901319
3606.000000	82.165112
3604.000000	82.313406
3602.000000	82.303972
3600.000000	82.268884
3598.000000	82.235772
3596.000000	82.192916
3594.000000	82.204462
3592.000000	82.187297
3590.000000	81.988048
3588.000000	81.826433
3586.000000	81.966420
3584.000000	82.209682
3582.000000	82.316705
3580.000000	82.325655
3578.000000	82.323025
3576.000000	82.322984
3574.000000	82.321150
3572.000000	82.257122
3570.000000	82.043223
3568.000000	81.831775
3566.000000	81.880231
3564.000000	82.077321
3562.000000	82.191467
3560.000000	82.226516
3558.000000	82.247274
3556.000000	82.236883
3554.000000	82.187127
3552.000000	82.157304
3550.000000	82.141304
3548.000000	82.073546
3546.000000	82.022224
3544.000000	82.063466
3542.000000	82.131854
3540.000000	82.148808
3538.000000	82.117544
3536.000000	82.091359
3534.000000	82.083315
3532.000000	82.047530
3530.000000	81.977252
3528.000000	81.911490
3526.000000	81.863784
3524.000000	81.829002
3522.000000	81.822241
3520.000000	81.822002
3518.000000	81.803471
3516.000000	81.772903
3514.000000	81.727393
3512.000000	81.661730
3510.000000	81.599618
3508.000000	81.560395
3506.000000	81.499453
3504.000000	81.411945
3502.000000	81.364972
3500.000000	81.347821
3498.000000	81.304285
3496.000000	81.247458
3494.000000	81.201706
3492.000000	81.152472
3490.000000	81.090254
3488.000000	81.031530
3486.000000	80.987489
3484.000000	80.941050
3482.000000	80.898881
3480.000000	80.886731
3478.000000	80.890821
3476.000000	80.889464
3474.000000	80.891538
3472.000000	80.898754
3470.000000	80.901523
3468.000000	80.910262
3466.000000	80.939999
3464.000000	80.979239
3462.000000	81.017448
3460.000000	81.058424
3458.000000	81.097222
3456.000000	81.131117
3454.000000	81.161911
3452.000000	81.182360
3450.000000	81.180092
3448.000000	81.171161
3446.000000	81.197957
3444.000000	81.252935
3442.000000	81.315473
3440.000000	81.390974
3438.000000	81.476851
3436.000000	81.575731
3434.000000	81.696018
3432.000000	81.834435
3430.000000	81.979197
3428.000000	82.123428
3426.000000	82.259941
3424.000000	82.379182
3422.000000	82.482749
3420.000000	82.592234
3418.000000	82.710175
3416.000000	82.811650
3414.000000	82.891878
3412.000000	82.963887
3410.000000	83.031362
3408.000000	83.094150
3406.000000	83.151490
3404.000000	83.199398
3402.000000	83.241671
3400.000000	83.295971
3398.000000	83.372651
3396.000000	83.455343
3394.000000	83.522396
3392.000000	83.586676
3390.000000	83.668208
3388.000000	83.748309
3386.000000	83.811963
3384.000000	83.870422
3382.000000	83.929269
3380.000000	83.984265
3378.000000	84.035467
3376.000000	84.084983
3374.000000	84.131791
3372.000000	84.169075
3370.000000	84.196306
3368.000000	84.231875
3366.000000	84.282991
3364.000000	84.337954
3362.000000	84.388277
3360.000000	84.433938
3358.000000	84.477121
3356.000000	84.519986
3354.000000	84.562542
3352.000000	84.600423
3350.000000	84.639177
3348.000000	84.685180
3346.000000	84.730076
3344.000000	84.769343
3342.000000	84.807254
3340.000000	84.843542
3338.000000	84.878017
3336.000000	84.919792
3334.000000	84.966428
3332.000000	85.009222
3330.000000	85.046881
3328.000000	85.079825
3326.000000	85.111189
3324.000000	85.148054
3322.000000	85.188695
3320.000000	85.227693
3318.000000	85.264586
3316.000000	85.298607
3314.000000	85.329676
3312.000000	85.359765
3310.000000	85.385830
3308.000000	85.407252
3306.000000	85.433012
3304.000000	85.476276
3302.000000	85.529220
3300.000000	85.572295
3298.000000	85.605598
3296.000000	85.637396
3294.000000	85.666857
3292.000000	85.698824
3290.000000	85.741978
3288.000000	85.788488
3286.000000	85.828913
3284.000000	85.866655
3282.000000	85.904641
3280.000000	85.940252
3278.000000	85.972683
3276.000000	86.004649
3274.000000	86.038935
3272.000000	86.075890
3270.000000	86.119864
3268.000000	86.171091
3266.000000	86.218659
3264.000000	86.261965
3262.000000	86.305398
3260.000000	86.348558
3258.000000	86.389450
3256.000000	86.429822
3254.000000	86.475547
3252.000000	86.528219
3250.000000	86.577942
3248.000000	86.619369
3246.000000	86.661367
3244.000000	86.714301
3242.000000	86.770491
3240.000000	86.821830
3238.000000	86.870270
3236.000000	86.914641
3234.000000	86.955214
3232.000000	87.005079
3230.000000	87.062659
3228.000000	87.116947
3226.000000	87.169348
3224.000000	87.217796
3222.000000	87.259791
3220.000000	87.304559
3218.000000	87.355807
3216.000000	87.404762
3214.000000	87.452569
3212.000000	87.504035
3210.000000	87.557901
3208.000000	87.617697
3206.000000	87.681732
3204.000000	87.748645
3202.000000	87.817541
3200.000000	87.885184
3198.000000	87.953749
3196.000000	88.028869
3194.000000	88.105936
3192.000000	88.179714
3190.000000	88.250578
3188.000000	88.320715
3186.000000	88.390371
3184.000000	88.462815
3182.000000	88.534643
3180.000000	88.601988
3178.000000	88.670893
3176.000000	88.747375
3174.000000	88.824524
3172.000000	88.897269
3170.000000	88.968309
3168.000000	89.042522
3166.000000	89.118600
3164.000000	89.194517
3162.000000	89.272051
3160.000000	89.352267
3158.000000	89.430719
3156.000000	89.505599
3154.000000	89.574686
3152.000000	89.646586
3150.000000	89.731597
3148.000000	89.818004
3146.000000	89.895871
3144.000000	89.969730
3142.000000	90.040799
3140.000000	90.110209
3138.000000	90.182083
3136.000000	90.253601
3134.000000	90.318092
3132.000000	90.385509
3130.000000	90.455321
3128.000000	90.520268
3126.000000	90.581341
3124.000000	90.637622
3122.000000	90.687161
3120.000000	90.734859
3118.000000	90.784060
3116.000000	90.839267
3114.000000	90.904992
3112.000000	90.968462
3110.000000	91.018554
3108.000000	91.070723
3106.000000	91.130948
3104.000000	91.189539
3102.000000	91.245894
3100.000000	91.309553
3098.000000	91.376622
3096.000000	91.441483
3094.000000	91.508220
3092.000000	91.572605
3090.000000	91.631447
3088.000000	91.688572
3086.000000	91.741350
3084.000000	91.788629
3082.000000	91.829824
3080.000000	91.864403
3078.000000	91.901492
3076.000000	91.946526
3074.000000	91.982356
3072.000000	92.001025
3070.000000	92.007737
3068.000000	92.010312
3066.000000	92.025434
3064.000000	92.063028
3062.000000	92.113454
3060.000000	92.168355
3058.000000	92.223116
3056.000000	92.283789
3054.000000	92.348161
3052.000000	92.404280
3050.000000	92.453550
3048.000000	92.503835
3046.000000	92.546682
3044.000000	92.575654
3042.000000	92.598846
3040.000000	92.625078
3038.000000	92.647169
3036.000000	92.656762
3034.000000	92.652821
3032.000000	92.637786
3030.000000	92.605873
3028.000000	92.539763
3026.000000	92.432094
3024.000000	92.303138
3022.000000	92.185388
3020.000000	92.119519
3018.000000	92.145381
3016.000000	92.284329
3014.000000	92.518097
3012.000000	92.804043
3010.000000	93.086474
3008.000000	93.319882
3006.000000	93.484139
3004.000000	93.596383
3002.000000	93.678413
3000.000000	93.738121
2998.000000	93.778512
2996.000000	93.807917
2994.000000	93.827191
2992.000000	93.838394
2990.000000	93.839447
2988.000000	93.824163
2986.000000	93.789019
2984.000000	93.729353
2982.000000	93.639748
2980.000000	93.517890
2978.000000	93.351359
2976.000000	93.123248
2974.000000	92.814335
2972.000000	92.415472
2970.000000	91.932040
2968.000000	91.405216
2966.000000	90.916715
2964.000000	90.556744
2962.000000	90.382156
2960.000000	90.396443
2958.000000	90.540910
2956.000000	90.734957
2954.000000	90.917518
2952.000000	91.057707
2950.000000	91.126761
2948.000000	91.090773
2946.000000	90.925135
2944.000000	90.628016
2942.000000	90.213765
2940.000000	89.717495
2938.000000	89.199620
2936.000000	88.723363
2934.000000	88.298974
2932.000000	87.896673
2930.000000	87.502778
2928.000000	87.171458
2926.000000	87.007644
2924.000000	87.119258
2922.000000	87.545429
2920.000000	88.228152
2918.000000	89.051151
2916.000000	89.907976
2914.000000	90.713279
2912.000000	91.408072
2910.000000	91.965114
2908.000000	92.399567
2906.000000	92.751449
2904.000000	93.055470
2902.000000	93.331255
2900.000000	93.588827
2898.000000	93.830015
2896.000000	94.057993
2894.000000	94.273740
2892.000000	94.478446
2890.000000	94.665973
2888.000000	94.828400
2886.000000	94.957782
2884.000000	95.046799
2882.000000	95.089731
2880.000000	95.087456
2878.000000	95.033314
2876.000000	94.920149
2874.000000	94.739027
2872.000000	94.481540
2870.000000	94.119751
2868.000000	93.630050
2866.000000	93.049085
2864.000000	92.501490
2862.000000	92.144615
2860.000000	92.068888
2858.000000	92.238048
2856.000000	92.544068
2854.000000	92.905228
2852.000000	93.321196
2850.000000	93.832414
2848.000000	94.440766
2846.000000	95.062913
2844.000000	95.606107
2842.000000	96.040344
2840.000000	96.380465
2838.000000	96.651462
2836.000000	96.875518
2834.000000	97.058423
2832.000000	97.213461
2830.000000	97.350094
2828.000000	97.473955
2826.000000	97.584352
2824.000000	97.684910
2822.000000	97.777413
2820.000000	97.864231
2818.000000	97.943150
2816.000000	98.014481
2814.000000	98.078457
2812.000000	98.136756
2810.000000	98.189133
2808.000000	98.239998
2806.000000	98.288219
2804.000000	98.334826
2802.000000	98.379243
2800.000000	98.421237
2798.000000	98.461002
2796.000000	98.502457
2794.000000	98.543900
2792.000000	98.590244
2790.000000	98.645359
2788.000000	98.714784
2786.000000	98.796353
2784.000000	98.882563
2782.000000	98.963885
2780.000000	99.038801
2778.000000	99.104194
2776.000000	99.165120
2774.000000	99.223805
2772.000000	99.279725
2770.000000	99.331807
2768.000000	99.381895
2766.000000	99.429858
2764.000000	99.477424
2762.000000	99.521833
2760.000000	99.566579
2758.000000	99.610823
2756.000000	99.654589
2754.000000	99.694931
2752.000000	99.733741
2750.000000	99.771259
2748.000000	99.809000
2746.000000	99.844706
2744.000000	99.880310
2742.000000	99.913869
2740.000000	99.948048
2738.000000	99.982441
2736.000000	100.017535
2734.000000	100.050996
2732.000000	100.083634
2730.000000	100.116096
2728.000000	100.149941
2726.000000	100.183317
2724.000000	100.215891
2722.000000	100.244960
2720.000000	100.274772
2718.000000	100.304900
2716.000000	100.335023
2714.000000	100.361825
2712.000000	100.386642
2710.000000	100.409632
2708.000000	100.433389
2706.000000	100.458276
2704.000000	100.488089
2702.000000	100.523894
2700.000000	100.567468
2698.000000	100.614577
2696.000000	100.660709
2694.000000	100.704679
2692.000000	100.749741
2690.000000	100.791993
2688.000000	100.832511
2686.000000	100.870511
2684.000000	100.909280
2682.000000	100.945386
2680.000000	100.979811
2678.000000	101.012237
2676.000000	101.044039
2674.000000	101.075534
2672.000000	101.108568
2670.000000	101.138262
2668.000000	101.165690
2666.000000	101.193189
2664.000000	101.222526
2662.000000	101.249588
2660.000000	101.277064
2658.000000	101.306853
2656.000000	101.340626
2654.000000	101.376161
2652.000000	101.415222
2650.000000	101.454527
2648.000000	101.494080
2646.000000	101.531478
2644.000000	101.568326
2642.000000	101.603869
2640.000000	101.640362
2638.000000	101.674741
2636.000000	101.708636
2634.000000	101.740500
2632.000000	101.771038
2630.000000	101.798507
2628.000000	101.826784
2626.000000	101.854247
2624.000000	101.882126
2622.000000	101.909738
2620.000000	101.938947
2618.000000	101.965830
2616.000000	101.990429
2614.000000	102.013282
2612.000000	102.037276
2610.000000	102.058980
2608.000000	102.077964
2606.000000	102.093554
2604.000000	102.108815
2602.000000	102.120544
2600.000000	102.131379
2598.000000	102.139547
2596.000000	102.149228
2594.000000	102.163013
2592.000000	102.185623
2590.000000	102.216378
2588.000000	102.257171
2586.000000	102.306751
2584.000000	102.365176
2582.000000	102.426313
2580.000000	102.489404
2578.000000	102.548392
2576.000000	102.601499
2574.000000	102.647541
2572.000000	102.689806
2570.000000	102.727841
2568.000000	102.765434
2566.000000	102.799323
2564.000000	102.832273
2562.000000	102.861320
2560.000000	102.890809
2558.000000	102.919100
2556.000000	102.946106
2554.000000	102.970448
2552.000000	102.995278
2550.000000	103.020156
2548.000000	103.046425
2546.000000	103.071415
2544.000000	103.097284
2542.000000	103.121916
2540.000000	103.148850
2538.000000	103.175272
2536.000000	103.201391
2534.000000	103.225473
2532.000000	103.251573
2530.000000	103.276974
2528.000000	103.302118
2526.000000	103.325240
2524.000000	103.349948
2522.000000	103.374166
2520.000000	103.398819
2518.000000	103.420671
2516.000000	103.443214
2514.000000	103.464295
2512.000000	103.487687
2510.000000	103.509943
2508.000000	103.530792
2506.000000	103.548464
2504.000000	103.568532
2502.000000	103.589932
2500.000000	103.612580
2498.000000	103.635042
2496.000000	103.660679
2494.000000	103.685974
2492.000000	103.712617
2490.000000	103.737730
2488.000000	103.763995
2486.000000	103.787958
2484.000000	103.813575
2482.000000	103.837755
2480.000000	103.862926
2478.000000	103.886146
2476.000000	103.909110
2474.000000	103.930559
2472.000000	103.950529
2470.000000	103.966637
2468.000000	103.982724
2466.000000	103.997060
2464.000000	104.015159
2462.000000	104.029684
2460.000000	104.044093
2458.000000	104.060526
2456.000000	104.078476
2454.000000	104.094261
2452.000000	104.111184
2450.000000	104.126584
2448.000000	104.142646
2446.000000	104.157564
2444.000000	104.172714
2442.000000	104.185586
2440.000000	104.199114
2438.000000	104.212004
2436.000000	104.228331
2434.000000	104.242146
2432.000000	104.254486
2430.000000	104.264079
2428.000000	104.274692
2426.000000	104.285690
2424.000000	104.302218
2422.000000	104.318253
2420.000000	104.333727
2418.000000	104.344743
2416.000000	104.356468
2414.000000	104.367319
2412.000000	104.378191
2410.000000	104.388067
2408.000000	104.400099
2406.000000	104.410753
2404.000000	104.424878
2402.000000	104.440180
2400.000000	104.456732
2398.000000	104.472034
2396.000000	104.488749
2394.000000	104.504488
2392.000000	104.521706
2390.000000	104.535937
2388.000000	104.548693
2386.000000	104.552061
2384.000000	104.542038
2382.000000	104.508211
2380.000000	104.442218
2378.000000	104.331649
2376.000000	104.178561
2374.000000	103.981281
2372.000000	103.753098
2370.000000	103.510022
2368.000000	103.278548
2366.000000	103.086082
2364.000000	102.959463
2362.000000	102.915829
2360.000000	102.971412
2358.000000	103.121195
2356.000000	103.360774
2354.000000	103.671039
2352.000000	104.015844
2350.000000	104.265868
2348.000000	104.253555
2346.000000	104.029174
2344.000000	103.789343
2342.000000	103.613694
2340.000000	103.515235
2338.000000	103.472073
2336.000000	103.469346
2334.000000	103.498011
2332.000000	103.556233
2330.000000	103.638690
2328.000000	103.743542
2326.000000	103.857383
2324.000000	103.977281
2322.000000	104.095306
2320.000000	104.207307
2318.000000	104.307877
2316.000000	104.401936
2314.000000	104.482216
2312.000000	104.552896
2310.000000	104.611993
2308.000000	104.663664
2306.000000	104.704878
2304.000000	104.739497
2302.000000	104.766120
2300.000000	104.789830
2298.000000	104.808938
2296.000000	104.825864
2294.000000	104.839333
2292.000000	104.855065
2290.000000	104.867728
2288.000000	104.878663
2286.000000	104.884731
2284.000000	104.890572
2282.000000	104.889037
2280.000000	104.885867
2278.000000	104.881263
2276.000000	104.876466
2274.000000	104.870829
2272.000000	104.865908
2270.000000	104.857651
2268.000000	104.853099
2266.000000	104.848240
2264.000000	104.844986
2262.000000	104.839479
2260.000000	104.836488
2258.000000	104.834447
2256.000000	104.835303
2254.000000	104.834223
2252.000000	104.835657
2250.000000	104.839189
2248.000000	104.849471
2246.000000	104.857466
2244.000000	104.866771
2242.000000	104.875951
2240.000000	104.889777
2238.000000	104.903308
2236.000000	104.917450
2234.000000	104.928672
2232.000000	104.942736
2230.000000	104.955233
2228.000000	104.967095
2226.000000	104.974612
2224.000000	104.984422
2222.000000	104.992189
2220.000000	104.999953
2218.000000	105.005800
2216.000000	105.014677
2214.000000	105.018907
2212.000000	105.024304
2210.000000	105.028111
2208.000000	105.031721
2206.000000	105.033138
2204.000000	105.038840
2202.000000	105.041303
2200.000000	105.044343
2198.000000	105.046078
2196.000000	105.050990
2194.000000	105.051680
2192.000000	105.053704
2190.000000	105.053889
2188.000000	105.053541
2186.000000	105.049898
2184.000000	105.048844
2182.000000	105.045550
2180.000000	105.045984
2178.000000	105.044464
2176.000000	105.043146
2174.000000	105.033552
2172.000000	105.009682
2170.000000	104.982923
2168.000000	104.993188
2166.000000	105.014681
2164.000000	105.022098
2162.000000	105.018997
2160.000000	105.017802
2158.000000	105.015211
2156.000000	105.017339
2154.000000	105.015238
2152.000000	105.012071
2150.000000	105.007331
2148.000000	105.006259
2146.000000	105.004378
2144.000000	105.004979
2142.000000	105.000827
2140.000000	104.997861
2138.000000	104.991021
2136.000000	104.990066
2134.000000	104.990276
2132.000000	104.990213
2130.000000	104.986037
2128.000000	104.984430
2126.000000	104.982820
2124.000000	104.983601
2122.000000	104.983097
2120.000000	104.985575
2118.000000	104.986834
2116.000000	104.988549
2114.000000	104.991547
2112.000000	105.001425
2110.000000	105.011038
2108.000000	105.023934
2106.000000	105.036135
2104.000000	105.049854
2102.000000	105.059103
2100.000000	105.070230
2098.000000	105.081027
2096.000000	105.096033
2094.000000	105.108055
2092.000000	105.117840
2090.000000	105.124501
2088.000000	105.143064
2086.000000	105.157744
2084.000000	105.175310
2082.000000	105.189342
2080.000000	105.206297
2078.000000	105.219157
2076.000000	105.235110
2074.000000	105.249422
2072.000000	105.268889
2070.000000	105.284587
2068.000000	105.297205
2066.000000	105.301174
2064.000000	105.325058
2062.000000	105.357125
2060.000000	105.383143
2058.000000	105.403805
2056.000000	105.427188
2054.000000	105.446138
2052.000000	105.467187
2050.000000	105.485065
2048.000000	105.504867
2046.000000	105.518857
2044.000000	105.532339
2042.000000	105.538722
2040.000000	105.560320
2038.000000	105.582253
2036.000000	105.596898
2034.000000	105.604555
2032.000000	105.604874
2030.000000	105.585739
2028.000000	105.594374
2026.000000	105.628533
2024.000000	105.650989
2022.000000	105.657504
2020.000000	105.652358
2018.000000	105.636635
2016.000000	105.664155
2014.000000	105.710427
2012.000000	105.737963
2010.000000	105.750638
2008.000000	105.763354
2006.000000	105.774053
2004.000000	105.786283
2002.000000	105.791295
2000.000000	105.795748
1998.000000	105.798903
1996.000000	105.798297
1994.000000	105.744984
1992.000000	105.697817
1990.000000	105.732769
1988.000000	105.770816
1986.000000	105.783128
1984.000000	105.785413
1982.000000	105.776252
1980.000000	105.765625
1978.000000	105.749034
1976.000000	105.733291
1974.000000	105.715768
1972.000000	105.696795
1970.000000	105.651511
1968.000000	105.581939
1966.000000	105.565477
1964.000000	105.582853
1962.000000	105.528858
1960.000000	105.405488
1958.000000	105.373221
1956.000000	105.453575
1954.000000	105.480895
1952.000000	105.464874
1950.000000	105.429516
1948.000000	105.399155
1946.000000	105.340025
1944.000000	105.225864
1942.000000	105.181848
1940.000000	105.274418
1938.000000	105.306498
1936.000000	105.284831
1934.000000	105.250633
1932.000000	105.225458
1930.000000	105.196430
1928.000000	105.169574
1926.000000	105.103407
1924.000000	104.990979
1922.000000	104.927573
1920.000000	104.811728
1918.000000	104.663053
1916.000000	104.785076
1914.000000	104.872605
1912.000000	104.810273
1910.000000	104.709669
1908.000000	104.675412
1906.000000	104.655329
1904.000000	104.616631
1902.000000	104.560409
1900.000000	104.515516
1898.000000	104.445033
1896.000000	104.367290
1894.000000	104.332463
1892.000000	104.271992
1890.000000	104.140784
1888.000000	104.189371
1886.000000	104.266345
1884.000000	104.268484
1882.000000	104.251551
1880.000000	104.236353
1878.000000	104.206776
1876.000000	104.184711
1874.000000	104.141049
1872.000000	103.972364
1870.000000	103.627277
1868.000000	103.590830
1866.000000	103.839380
1864.000000	103.970477
1862.000000	103.956431
1860.000000	103.921685
1858.000000	103.887512
1856.000000	103.868300
1854.000000	103.829509
1852.000000	103.788907
1850.000000	103.699797
1848.000000	103.525265
1846.000000	103.039841
1844.000000	102.744767
1842.000000	103.165958
1840.000000	103.451343
1838.000000	103.399397
1836.000000	103.351231
1834.000000	103.276070
1832.000000	102.977305
1830.000000	102.676743
1828.000000	102.747203
1826.000000	102.711064
1824.000000	102.733591
1822.000000	102.875785
1820.000000	102.863653
1818.000000	102.770143
1816.000000	102.710999
1814.000000	102.612547
1812.000000	102.424671
1810.000000	102.310120
1808.000000	102.313226
1806.000000	102.255937
1804.000000	102.064738
1802.000000	101.759548
1800.000000	101.617847
1798.000000	101.645515
1796.000000	101.509498
1794.000000	100.918313
1792.000000	100.597388
1790.000000	100.977247
1788.000000	101.186775
1786.000000	100.961377
1784.000000	100.816109
1782.000000	100.730825
1780.000000	100.629554
1778.000000	100.587320
1776.000000	100.279369
1774.000000	99.435282
1772.000000	99.017174
1770.000000	99.421387
1768.000000	99.657531
1766.000000	99.898959
1764.000000	99.740222
1762.000000	99.347798
1760.000000	99.398998
1758.000000	99.329124
1756.000000	99.198544
1754.000000	98.981873
1752.000000	98.239337
1750.000000	98.003616
1748.000000	98.251744
1746.000000	98.344163
1744.000000	98.203825
1742.000000	97.846909
1740.000000	97.495648
1738.000000	97.469845
1736.000000	96.544996
1734.000000	95.598574
1732.000000	96.510977
1730.000000	97.382507
1728.000000	97.603080
1726.000000	97.604336
1724.000000	97.503046
1722.000000	97.319829
1720.000000	96.422591
1718.000000	95.181834
1716.000000	95.429470
1714.000000	96.362011
1712.000000	96.829513
1710.000000	96.785055
1708.000000	96.444390
1706.000000	96.020236
1704.000000	95.791955
1702.000000	94.630077
1700.000000	93.766812
1698.000000	94.094005
1696.000000	94.009332
1694.000000	95.104802
1692.000000	96.068526
1690.000000	96.003157
1688.000000	95.516014
1686.000000	93.938221
1684.000000	93.339248
1682.000000	94.764473
1680.000000	95.589350
1678.000000	95.412974
1676.000000	94.736056
1674.000000	94.738783
1672.000000	94.809655
1670.000000	94.392884
1668.000000	94.657178
1666.000000	95.045685
1664.000000	94.710873
1662.000000	94.545100
1660.000000	94.816034
1658.000000	94.720650
1656.000000	93.405125
1654.000000	90.962407
1652.000000	91.156652
1650.000000	93.098066
1648.000000	92.973103
1646.000000	92.623970
1644.000000	93.367594
1642.000000	93.804179
1640.000000	93.563925
1638.000000	92.662972
1636.000000	91.606889
1634.000000	92.085159
1632.000000	92.870514
1630.000000	92.709188
1628.000000	92.283714
1626.000000	91.860489
1624.000000	91.224743
1622.000000	90.924368
1620.000000	90.559935
1618.000000	89.309061
1616.000000	88.769069
1614.000000	89.211388
1612.000000	88.912569
1610.000000	88.273258
1608.000000	87.947703
1606.000000	87.994298
1604.000000	88.190789
1602.000000	88.438296
1600.000000	88.684587
1598.000000	88.889997
1596.000000	89.025116
1594.000000	89.139046
1592.000000	89.214877
1590.000000	89.226030
1588.000000	89.191295
1586.000000	89.124572
1584.000000	89.047750
1582.000000	88.992200
1580.000000	88.806807
1578.000000	87.843214
1576.000000	87.163986
1574.000000	88.051640
1572.000000	88.334871
1570.000000	87.830872
1568.000000	87.914821
1566.000000	88.021537
1564.000000	87.699641
1562.000000	86.390883
1560.000000	84.233403
1558.000000	84.268300
1556.000000	85.813288
1554.000000	86.658758
1552.000000	87.299371
1550.000000	87.652941
1548.000000	87.838835
1546.000000	87.638490
1544.000000	87.133848
1542.000000	86.260455
1540.000000	85.776560
1538.000000	87.158577
1536.000000	88.524569
1534.000000	88.533046
1532.000000	88.877971
1530.000000	89.235942
1528.000000	89.014981
1526.000000	88.671461
1524.000000	88.244745
1522.000000	87.449248
1520.000000	87.604906
1518.000000	88.058266
1516.000000	88.085253
1514.000000	88.113996
1512.000000	87.901825
1510.000000	87.275357
1508.000000	85.688449
1506.000000	84.927223
1504.000000	85.647008
1502.000000	85.106381
1500.000000	82.572058
1498.000000	79.115974
1496.000000	76.591888
1494.000000	76.380499
1492.000000	77.466313
1490.000000	79.116266
1488.000000	81.112714
1486.000000	82.824613
1484.000000	83.947756
1482.000000	84.460450
1480.000000	84.693655
1478.000000	84.560330
1476.000000	84.084543
1474.000000	83.380926
1472.000000	83.206986
1470.000000	83.701923
1468.000000	83.648256
1466.000000	82.950425
1464.000000	82.556044
1462.000000	82.378515
1460.000000	81.271068
1458.000000	79.253627
1456.000000	78.266978
1454.000000	78.331399
1452.000000	78.008980
1450.000000	78.062087
1448.000000	78.850693
1446.000000	79.882416
1444.000000	80.422730
1442.000000	80.549115
1440.000000	80.386075
1438.000000	79.784343
1436.000000	79.705432
1434.000000	80.375874
1432.000000	80.522495
1430.000000	80.434899
1428.000000	80.496597
1426.000000	80.515191
1424.000000	80.375046
1422.000000	80.061015
1420.000000	79.342292
1418.000000	79.330444
1416.000000	79.719098
1414.000000	79.682634
1412.000000	79.329453
1410.000000	78.804378
1408.000000	78.039374
1406.000000	77.175712
1404.000000	76.703546
1402.000000	76.735293
1400.000000	76.885048
1398.000000	77.283255
1396.000000	77.630694
1394.000000	77.967330
1392.000000	78.410589
1390.000000	78.417097
1388.000000	78.008208
1386.000000	77.771141
1384.000000	77.768239
1382.000000	77.890022
1380.000000	77.977110
1378.000000	77.909810
1376.000000	77.711184
1374.000000	77.547648
1372.000000	77.561934
1370.000000	77.496213
1368.000000	77.339341
1366.000000	77.171683
1364.000000	76.880871
1362.000000	76.674987
1360.000000	76.638490
1358.000000	76.549151
1356.000000	76.356464
1354.000000	76.151408
1352.000000	75.949115
1350.000000	75.733106
1348.000000	75.514752
1346.000000	75.289305
1344.000000	75.036924
1342.000000	74.734766
1340.000000	74.438024
1338.000000	74.307347
1336.000000	74.270071
1334.000000	74.197639
1332.000000	74.052224
1330.000000	73.861557
1328.000000	73.637532
1326.000000	73.394239
1324.000000	73.128016
1322.000000	72.839799
1320.000000	72.519764
1318.000000	72.217088
1316.000000	71.927957
1314.000000	71.619451
1312.000000	71.309703
1310.000000	71.003211
1308.000000	70.675321
1306.000000	70.345810
1304.000000	70.006336
1302.000000	69.664455
1300.000000	69.318059
1298.000000	68.969024
1296.000000	68.611913
1294.000000	68.248957
1292.000000	67.863487
1290.000000	67.466316
1288.000000	67.062669
1286.000000	66.665925
1284.000000	66.254857
1282.000000	65.824081
1280.000000	65.364294
1278.000000	64.875163
1276.000000	64.334241
1274.000000	63.717044
1272.000000	62.983139
1270.000000	62.096361
1268.000000	60.990867
1266.000000	59.671137
1264.000000	58.296310
1262.000000	57.193727
1260.000000	56.644494
1258.000000	56.656335
1256.000000	56.946579
1254.000000	57.189450
1252.000000	57.183964
1250.000000	56.940478
1248.000000	56.543967
1246.000000	56.071007
1244.000000	55.561137
1242.000000	55.045155
1240.000000	54.533807
1238.000000	54.040528
1236.000000	53.561049
1234.000000	53.096630
1232.000000	52.640596
1230.000000	52.195008
1228.000000	51.747468
1226.000000	51.295596
1224.000000	50.833857
1222.000000	50.361854
1220.000000	49.867961
1218.000000	49.357728
1216.000000	48.836094
1214.000000	48.320437
1212.000000	47.823630
1210.000000	47.368292
1208.000000	46.949742
1206.000000	46.553307
1204.000000	46.154585
1202.000000	45.754796
1200.000000	45.359106
1198.000000	44.970197
1196.000000	44.574517
1194.000000	44.169195
1192.000000	43.751631
1190.000000	43.321937
1188.000000	42.874678
1186.000000	42.402550
1184.000000	41.819856
1182.000000	41.089949
1180.000000	40.518504
1178.000000	40.271191
1176.000000	40.040931
1174.000000	39.684092
1172.000000	39.256664
1170.000000	38.809238
1168.000000	38.342501
1166.000000	37.867022
1164.000000	37.393178
1162.000000	36.931696
1160.000000	36.475099
1158.000000	36.038717
1156.000000	35.615423
1154.000000	35.194865
1152.000000	34.767095
1150.000000	34.346167
1148.000000	33.915630
1146.000000	33.476588
1144.000000	33.046698
1142.000000	32.668943
1140.000000	32.355953
1138.000000	32.043480
1136.000000	31.683622
1134.000000	31.289777
1132.000000	30.873831
1130.000000	30.448307
1128.000000	30.023596
1126.000000	29.604877
1124.000000	29.176941
1122.000000	28.739237
1120.000000	28.287992
1118.000000	27.829132
1116.000000	27.362315
1114.000000	26.893982
1112.000000	26.424700
1110.000000	25.961824
1108.000000	25.504919
1106.000000	25.068851
1104.000000	24.650751
1102.000000	24.241623
1100.000000	23.828226
1098.000000	23.419777
1096.000000	23.021045
1094.000000	22.637056
1092.000000	22.267989
1090.000000	21.915781
1088.000000	21.572337
1086.000000	21.234355
1084.000000	20.884975
1082.000000	20.528284
1080.000000	20.192505
1078.000000	19.889251
1076.000000	19.610255
1074.000000	19.375529
1072.000000	19.159947
1070.000000	18.937302
1068.000000	18.704347
1066.000000	18.472675
1064.000000	18.241032
1062.000000	18.007691
1060.000000	17.759434
1058.000000	17.470833
1056.000000	17.079977
1054.000000	16.566265
1052.000000	16.058279
1050.000000	15.761352
1048.000000	15.728659
1046.000000	15.810914
1044.000000	15.812128
1042.000000	15.695460
1040.000000	15.509747
1038.000000	15.297764
1036.000000	15.068989
1034.000000	14.831846
1032.000000	14.582304
1030.000000	14.324120
1028.000000	14.058343
1026.000000	13.790581
1024.000000	13.517485
1022.000000	13.247640
1020.000000	12.992582
1018.000000	12.758493
1016.000000	12.542458
1014.000000	12.353645
1012.000000	12.182512
1010.000000	12.022336
1008.000000	11.857455
1006.000000	11.678886
1004.000000	11.481425
1002.000000	11.270971
1000.000000	11.041222
