PE IR       SUBTECH     SPECTRUM    ASCII       PEDS        4.00        
   -1
TE110A_071_130K_SB.ASC
20/05/14
15:05:34.00
20/05/14
15:05:34.00
Administrator
TE110A.Thursday, May 14 2020, 002.
1000.000000
#HDR
-1
-1
#GR
cm-1
EGY
1.0
0.0
6000.000000
-2.000000
2501
8
4.967191
0.506839
#DATA
6000.000000	0.822688
5998.000000	0.823763
5996.000000	0.827149
5994.000000	0.830416
5992.000000	0.832134
5990.000000	0.833445
5988.000000	0.835191
5986.000000	0.837233
5984.000000	0.839092
5982.000000	0.840787
5980.000000	0.841984
5978.000000	0.843264
5976.000000	0.845472
5974.000000	0.847551
5972.000000	0.849624
5970.000000	0.852163
5968.000000	0.853840
5966.000000	0.855150
5964.000000	0.855511
5962.000000	0.856372
5960.000000	0.857810
5958.000000	0.858784
5956.000000	0.860292
5954.000000	0.862061
5952.000000	0.864396
5950.000000	0.866733
5948.000000	0.869294
5946.000000	0.872654
5944.000000	0.874686
5942.000000	0.875035
5940.000000	0.875261
5938.000000	0.876282
5936.000000	0.878574
5934.000000	0.880323
5932.000000	0.882226
5930.000000	0.883966
5928.000000	0.884764
5926.000000	0.885324
5924.000000	0.887212
5922.000000	0.890734
5920.000000	0.893060
5918.000000	0.893698
5916.000000	0.894320
5914.000000	0.897122
5912.000000	0.900195
5910.000000	0.901779
5908.000000	0.903053
5906.000000	0.905176
5904.000000	0.907765
5902.000000	0.909536
5900.000000	0.911176
5898.000000	0.912578
5896.000000	0.913617
5894.000000	0.914427
5892.000000	0.916675
5890.000000	0.919718
5888.000000	0.922034
5886.000000	0.923598
5884.000000	0.924690
5882.000000	0.926697
5880.000000	0.928407
5878.000000	0.929832
5876.000000	0.932093
5874.000000	0.933904
5872.000000	0.936341
5870.000000	0.938209
5868.000000	0.939679
5866.000000	0.941863
5864.000000	0.943473
5862.000000	0.944789
5860.000000	0.946077
5858.000000	0.948048
5856.000000	0.951361
5854.000000	0.954545
5852.000000	0.956143
5850.000000	0.957445
5848.000000	0.958490
5846.000000	0.959816
5844.000000	0.961964
5842.000000	0.964787
5840.000000	0.967882
5838.000000	0.970285
5836.000000	0.971409
5834.000000	0.972757
5832.000000	0.974706
5830.000000	0.976816
5828.000000	0.978954
5826.000000	0.980642
5824.000000	0.982982
5822.000000	0.985488
5820.000000	0.987502
5818.000000	0.988923
5816.000000	0.990572
5814.000000	0.993196
5812.000000	0.995962
5810.000000	0.998120
5808.000000	0.999241
5806.000000	0.999880
5804.000000	1.001723
5802.000000	1.004513
5800.000000	1.006253
5798.000000	1.007307
5796.000000	1.008538
5794.000000	1.010762
5792.000000	1.013488
5790.000000	1.015451
5788.000000	1.017866
5786.000000	1.020494
5784.000000	1.021861
5782.000000	1.023324
5780.000000	1.025398
5778.000000	1.028392
5776.000000	1.031577
5774.000000	1.034453
5772.000000	1.036944
5770.000000	1.039091
5768.000000	1.040920
5766.000000	1.043093
5764.000000	1.044764
5762.000000	1.046158
5760.000000	1.048211
5758.000000	1.049696
5756.000000	1.050241
5754.000000	1.051657
5752.000000	1.054089
5750.000000	1.058020
5748.000000	1.060566
5746.000000	1.062615
5744.000000	1.064465
5742.000000	1.065738
5740.000000	1.068097
5738.000000	1.070839
5736.000000	1.073706
5734.000000	1.076539
5732.000000	1.079114
5730.000000	1.081662
5728.000000	1.083895
5726.000000	1.084967
5724.000000	1.086009
5722.000000	1.086767
5720.000000	1.089161
5718.000000	1.092021
5716.000000	1.094480
5714.000000	1.096576
5712.000000	1.098325
5710.000000	1.100383
5708.000000	1.101988
5706.000000	1.104020
5704.000000	1.106700
5702.000000	1.109243
5700.000000	1.110470
5698.000000	1.110866
5696.000000	1.112864
5694.000000	1.116317
5692.000000	1.118805
5690.000000	1.120003
5688.000000	1.122496
5686.000000	1.127175
5684.000000	1.131029
5682.000000	1.133309
5680.000000	1.134422
5678.000000	1.136476
5676.000000	1.138650
5674.000000	1.139962
5672.000000	1.141250
5670.000000	1.142944
5668.000000	1.145679
5666.000000	1.148205
5664.000000	1.150087
5662.000000	1.152239
5660.000000	1.155330
5658.000000	1.158196
5656.000000	1.160158
5654.000000	1.161787
5652.000000	1.163965
5650.000000	1.166047
5648.000000	1.167412
5646.000000	1.169195
5644.000000	1.172010
5642.000000	1.175710
5640.000000	1.178689
5638.000000	1.180385
5636.000000	1.182669
5634.000000	1.185227
5632.000000	1.188201
5630.000000	1.190599
5628.000000	1.192725
5626.000000	1.194556
5624.000000	1.195936
5622.000000	1.197561
5620.000000	1.200397
5618.000000	1.203472
5616.000000	1.206119
5614.000000	1.207854
5612.000000	1.209216
5610.000000	1.211275
5608.000000	1.214042
5606.000000	1.217214
5604.000000	1.219315
5602.000000	1.220573
5600.000000	1.222173
5598.000000	1.224116
5596.000000	1.226975
5594.000000	1.229823
5592.000000	1.232341
5590.000000	1.234224
5588.000000	1.235878
5586.000000	1.238185
5584.000000	1.240777
5582.000000	1.243691
5580.000000	1.246830
5578.000000	1.249484
5576.000000	1.251376
5574.000000	1.253210
5572.000000	1.255012
5570.000000	1.256525
5568.000000	1.257422
5566.000000	1.260243
5564.000000	1.264508
5562.000000	1.268559
5560.000000	1.271529
5558.000000	1.273641
5556.000000	1.275454
5554.000000	1.276736
5552.000000	1.278857
5550.000000	1.281962
5548.000000	1.284671
5546.000000	1.286213
5544.000000	1.287945
5542.000000	1.290435
5540.000000	1.292871
5538.000000	1.294906
5536.000000	1.296982
5534.000000	1.299150
5532.000000	1.301583
5530.000000	1.303654
5528.000000	1.306173
5526.000000	1.308861
5524.000000	1.310883
5522.000000	1.312854
5520.000000	1.314998
5518.000000	1.318422
5516.000000	1.321612
5514.000000	1.324262
5512.000000	1.326356
5510.000000	1.328770
5508.000000	1.331064
5506.000000	1.332838
5504.000000	1.334489
5502.000000	1.336577
5500.000000	1.339667
5498.000000	1.342533
5496.000000	1.344983
5494.000000	1.346621
5492.000000	1.347863
5490.000000	1.350027
5488.000000	1.352864
5486.000000	1.355878
5484.000000	1.358668
5482.000000	1.361167
5480.000000	1.364542
5478.000000	1.367035
5476.000000	1.369590
5474.000000	1.371733
5472.000000	1.374482
5470.000000	1.377338
5468.000000	1.379657
5466.000000	1.380955
5464.000000	1.382648
5462.000000	1.385606
5460.000000	1.388901
5458.000000	1.391024
5456.000000	1.392114
5454.000000	1.394141
5452.000000	1.397538
5450.000000	1.400102
5448.000000	1.402043
5446.000000	1.404200
5444.000000	1.406664
5442.000000	1.408324
5440.000000	1.409443
5438.000000	1.412280
5436.000000	1.415559
5434.000000	1.417771
5432.000000	1.419740
5430.000000	1.422279
5428.000000	1.425042
5426.000000	1.427867
5424.000000	1.431354
5422.000000	1.435025
5420.000000	1.438212
5418.000000	1.440468
5416.000000	1.441760
5414.000000	1.441456
5412.000000	1.441681
5410.000000	1.444205
5408.000000	1.447791
5406.000000	1.451803
5404.000000	1.455547
5402.000000	1.459548
5400.000000	1.462613
5398.000000	1.464567
5396.000000	1.465328
5394.000000	1.466220
5392.000000	1.468657
5390.000000	1.472313
5388.000000	1.475608
5386.000000	1.478381
5384.000000	1.481382
5382.000000	1.484750
5380.000000	1.487557
5378.000000	1.488937
5376.000000	1.489183
5374.000000	1.489487
5372.000000	1.492171
5370.000000	1.496585
5368.000000	1.500565
5366.000000	1.503016
5364.000000	1.505512
5362.000000	1.509392
5360.000000	1.512606
5358.000000	1.513878
5356.000000	1.514644
5354.000000	1.516535
5352.000000	1.519155
5350.000000	1.522172
5348.000000	1.525093
5346.000000	1.526990
5344.000000	1.528488
5342.000000	1.530701
5340.000000	1.534000
5338.000000	1.536326
5336.000000	1.538852
5334.000000	1.542653
5332.000000	1.547056
5330.000000	1.550112
5328.000000	1.551505
5326.000000	1.552313
5324.000000	1.554215
5322.000000	1.557337
5320.000000	1.560944
5318.000000	1.563982
5316.000000	1.566645
5314.000000	1.569039
5312.000000	1.571763
5310.000000	1.575299
5308.000000	1.578323
5306.000000	1.579842
5304.000000	1.581360
5302.000000	1.583707
5300.000000	1.586254
5298.000000	1.588576
5296.000000	1.591280
5294.000000	1.593894
5292.000000	1.595701
5290.000000	1.598044
5288.000000	1.601039
5286.000000	1.604081
5284.000000	1.606946
5282.000000	1.609511
5280.000000	1.612607
5278.000000	1.615529
5276.000000	1.617989
5274.000000	1.619823
5272.000000	1.622854
5270.000000	1.625943
5268.000000	1.627378
5266.000000	1.628321
5264.000000	1.629973
5262.000000	1.631744
5260.000000	1.633512
5258.000000	1.637380
5256.000000	1.641973
5254.000000	1.644458
5252.000000	1.645800
5250.000000	1.647973
5248.000000	1.650272
5246.000000	1.651955
5244.000000	1.655481
5242.000000	1.660197
5240.000000	1.663871
5238.000000	1.665787
5236.000000	1.668266
5234.000000	1.670760
5232.000000	1.672735
5230.000000	1.675125
5228.000000	1.677521
5226.000000	1.679643
5224.000000	1.681987
5222.000000	1.684973
5220.000000	1.687481
5218.000000	1.689712
5216.000000	1.692925
5214.000000	1.696272
5212.000000	1.699016
5210.000000	1.700288
5208.000000	1.701342
5206.000000	1.702932
5204.000000	1.706139
5202.000000	1.710551
5200.000000	1.714847
5198.000000	1.717729
5196.000000	1.719519
5194.000000	1.721855
5192.000000	1.724310
5190.000000	1.726376
5188.000000	1.728959
5186.000000	1.731883
5184.000000	1.734486
5182.000000	1.736475
5180.000000	1.739537
5178.000000	1.743136
5176.000000	1.746674
5174.000000	1.750147
5172.000000	1.752957
5170.000000	1.754867
5168.000000	1.756803
5166.000000	1.759399
5164.000000	1.762535
5162.000000	1.765363
5160.000000	1.767930
5158.000000	1.770363
5156.000000	1.772372
5154.000000	1.774316
5152.000000	1.776600
5150.000000	1.779678
5148.000000	1.782925
5146.000000	1.784822
5144.000000	1.786858
5142.000000	1.789192
5140.000000	1.792297
5138.000000	1.795065
5136.000000	1.797664
5134.000000	1.801377
5132.000000	1.805649
5130.000000	1.809022
5128.000000	1.810232
5126.000000	1.811467
5124.000000	1.813834
5122.000000	1.816422
5120.000000	1.818822
5118.000000	1.821124
5116.000000	1.824009
5114.000000	1.827693
5112.000000	1.831272
5110.000000	1.832761
5108.000000	1.833266
5106.000000	1.835988
5104.000000	1.840902
5102.000000	1.844639
5100.000000	1.847181
5098.000000	1.849818
5096.000000	1.852526
5094.000000	1.854492
5092.000000	1.857060
5090.000000	1.859434
5088.000000	1.861442
5086.000000	1.864217
5084.000000	1.867859
5082.000000	1.870409
5080.000000	1.872362
5078.000000	1.875430
5076.000000	1.879182
5074.000000	1.882888
5072.000000	1.886338
5070.000000	1.888875
5068.000000	1.890242
5066.000000	1.891618
5064.000000	1.893961
5062.000000	1.897516
5060.000000	1.900936
5058.000000	1.903725
5056.000000	1.906115
5054.000000	1.908868
5052.000000	1.911573
5050.000000	1.913879
5048.000000	1.916703
5046.000000	1.919802
5044.000000	1.923343
5042.000000	1.926702
5040.000000	1.928891
5038.000000	1.930994
5036.000000	1.934038
5034.000000	1.937462
5032.000000	1.939285
5030.000000	1.941272
5028.000000	1.944336
5026.000000	1.947207
5024.000000	1.949206
5022.000000	1.951226
5020.000000	1.953697
5018.000000	1.956490
5016.000000	1.959068
5014.000000	1.961281
5012.000000	1.964074
5010.000000	1.967707
5008.000000	1.970909
5006.000000	1.973271
5004.000000	1.976548
5002.000000	1.980624
5000.000000	1.983401
4998.000000	1.984788
4996.000000	1.987066
4994.000000	1.990578
4992.000000	1.993598
4990.000000	1.996081
4988.000000	1.999039
4986.000000	2.001579
4984.000000	2.003423
4982.000000	2.006294
4980.000000	2.009995
4978.000000	2.013191
4976.000000	2.015361
4974.000000	2.017788
4972.000000	2.020796
4970.000000	2.023658
4968.000000	2.025747
4966.000000	2.028232
4964.000000	2.032046
4962.000000	2.035541
4960.000000	2.037921
4958.000000	2.039597
4956.000000	2.041187
4954.000000	2.043801
4952.000000	2.047859
4950.000000	2.051451
4948.000000	2.053623
4946.000000	2.055321
4944.000000	2.058199
4942.000000	2.061301
4940.000000	2.064436
4938.000000	2.067255
4936.000000	2.070110
4934.000000	2.072798
4932.000000	2.075478
4930.000000	2.078531
4928.000000	2.080975
4926.000000	2.083571
4924.000000	2.087335
4922.000000	2.089812
4920.000000	2.090712
4918.000000	2.092857
4916.000000	2.096533
4914.000000	2.099492
4912.000000	2.101992
4910.000000	2.105340
4908.000000	2.108706
4906.000000	2.112310
4904.000000	2.115731
4902.000000	2.118484
4900.000000	2.120752
4898.000000	2.122637
4896.000000	2.124673
4894.000000	2.128044
4892.000000	2.132373
4890.000000	2.135710
4888.000000	2.137796
4886.000000	2.140364
4884.000000	2.144088
4882.000000	2.147196
4880.000000	2.149236
4878.000000	2.150865
4876.000000	2.153210
4874.000000	2.156359
4872.000000	2.159937
4870.000000	2.162949
4868.000000	2.165338
4866.000000	2.167645
4864.000000	2.170530
4862.000000	2.173703
4860.000000	2.176451
4858.000000	2.178547
4856.000000	2.180933
4854.000000	2.183533
4852.000000	2.186332
4850.000000	2.189630
4848.000000	2.192916
4846.000000	2.195833
4844.000000	2.198571
4842.000000	2.201453
4840.000000	2.204220
4838.000000	2.207484
4836.000000	2.210665
4834.000000	2.213018
4832.000000	2.214660
4830.000000	2.216846
4828.000000	2.219858
4826.000000	2.223601
4824.000000	2.227110
4822.000000	2.230141
4820.000000	2.232959
4818.000000	2.235541
4816.000000	2.237607
4814.000000	2.240199
4812.000000	2.244039
4810.000000	2.247332
4808.000000	2.250288
4806.000000	2.253980
4804.000000	2.257495
4802.000000	2.259303
4800.000000	2.261319
4798.000000	2.263943
4796.000000	2.266265
4794.000000	2.269205
4792.000000	2.273338
4790.000000	2.276505
4788.000000	2.278582
4786.000000	2.281175
4784.000000	2.284221
4782.000000	2.287048
4780.000000	2.289592
4778.000000	2.291935
4776.000000	2.294905
4774.000000	2.298733
4772.000000	2.302310
4770.000000	2.304786
4768.000000	2.307258
4766.000000	2.310672
4764.000000	2.313885
4762.000000	2.315963
4760.000000	2.318584
4758.000000	2.322177
4756.000000	2.324745
4754.000000	2.326626
4752.000000	2.328566
4750.000000	2.330819
4748.000000	2.334367
4746.000000	2.338386
4744.000000	2.340685
4742.000000	2.343087
4740.000000	2.347054
4738.000000	2.350421
4736.000000	2.352646
4734.000000	2.355127
4732.000000	2.358224
4730.000000	2.361456
4728.000000	2.364015
4726.000000	2.365737
4724.000000	2.368275
4722.000000	2.372585
4720.000000	2.375869
4718.000000	2.377617
4716.000000	2.380375
4714.000000	2.384834
4712.000000	2.388260
4710.000000	2.389856
4708.000000	2.392016
4706.000000	2.395452
4704.000000	2.399100
4702.000000	2.402508
4700.000000	2.405899
4698.000000	2.408301
4696.000000	2.410018
4694.000000	2.413133
4692.000000	2.417373
4690.000000	2.420851
4688.000000	2.423338
4686.000000	2.426334
4684.000000	2.429665
4682.000000	2.431922
4680.000000	2.433880
4678.000000	2.437658
4676.000000	2.441897
4674.000000	2.445086
4672.000000	2.447939
4670.000000	2.450880
4668.000000	2.452991
4666.000000	2.455685
4664.000000	2.459520
4662.000000	2.462938
4660.000000	2.465547
4658.000000	2.467402
4656.000000	2.469623
4654.000000	2.472365
4652.000000	2.475761
4650.000000	2.479360
4648.000000	2.482186
4646.000000	2.484415
4644.000000	2.487281
4642.000000	2.490268
4640.000000	2.492207
4638.000000	2.494267
4636.000000	2.496862
4634.000000	2.500204
4632.000000	2.504317
4630.000000	2.508324
4628.000000	2.511617
4626.000000	2.514578
4624.000000	2.517188
4622.000000	2.519821
4620.000000	2.522786
4618.000000	2.526869
4616.000000	2.530416
4614.000000	2.532350
4612.000000	2.533925
4610.000000	2.536927
4608.000000	2.540387
4606.000000	2.543972
4604.000000	2.547674
4602.000000	2.551408
4600.000000	2.554506
4598.000000	2.556813
4596.000000	2.559669
4594.000000	2.564102
4592.000000	2.568632
4590.000000	2.571857
4588.000000	2.574618
4586.000000	2.577249
4584.000000	2.579152
4582.000000	2.580946
4580.000000	2.583500
4578.000000	2.586170
4576.000000	2.589420
4574.000000	2.593392
4572.000000	2.597463
4570.000000	2.601086
4568.000000	2.604146
4566.000000	2.607034
4564.000000	2.610414
4562.000000	2.612995
4560.000000	2.615098
4558.000000	2.618000
4556.000000	2.621515
4554.000000	2.624064
4552.000000	2.626418
4550.000000	2.630101
4548.000000	2.634452
4546.000000	2.637754
4544.000000	2.640218
4542.000000	2.642450
4540.000000	2.644921
4538.000000	2.647929
4536.000000	2.650976
4534.000000	2.654481
4532.000000	2.657754
4530.000000	2.660860
4528.000000	2.664635
4526.000000	2.668148
4524.000000	2.670823
4522.000000	2.673224
4520.000000	2.675484
4518.000000	2.678901
4516.000000	2.683144
4514.000000	2.685847
4512.000000	2.688314
4510.000000	2.692002
4508.000000	2.696049
4506.000000	2.699791
4504.000000	2.703649
4502.000000	2.706281
4500.000000	2.707994
4498.000000	2.710567
4496.000000	2.713734
4494.000000	2.715927
4492.000000	2.718551
4490.000000	2.722718
4488.000000	2.727299
4486.000000	2.730493
4484.000000	2.732487
4482.000000	2.734410
4480.000000	2.736935
4478.000000	2.740797
4476.000000	2.745732
4474.000000	2.748636
4472.000000	2.750291
4470.000000	2.753023
4468.000000	2.756021
4466.000000	2.758111
4464.000000	2.760506
4462.000000	2.764439
4460.000000	2.769642
4458.000000	2.773638
4456.000000	2.775981
4454.000000	2.778096
4452.000000	2.780167
4450.000000	2.782787
4448.000000	2.785973
4446.000000	2.789280
4444.000000	2.793237
4442.000000	2.796876
4440.000000	2.799348
4438.000000	2.801788
4436.000000	2.804262
4434.000000	2.806721
4432.000000	2.810197
4430.000000	2.814062
4428.000000	2.817226
4426.000000	2.820017
4424.000000	2.823461
4422.000000	2.827182
4420.000000	2.829426
4418.000000	2.830854
4416.000000	2.834186
4414.000000	2.838657
4412.000000	2.842071
4410.000000	2.845010
4408.000000	2.847963
4406.000000	2.850114
4404.000000	2.852816
4402.000000	2.856980
4400.000000	2.860643
4398.000000	2.863398
4396.000000	2.866826
4394.000000	2.869591
4392.000000	2.871299
4390.000000	2.874296
4388.000000	2.878841
4386.000000	2.883274
4384.000000	2.886547
4382.000000	2.888447
4380.000000	2.889953
4378.000000	2.892129
4376.000000	2.895460
4374.000000	2.899407
4372.000000	2.902529
4370.000000	2.904949
4368.000000	2.906908
4366.000000	2.908668
4364.000000	2.911309
4362.000000	2.914288
4360.000000	2.917214
4358.000000	2.921286
4356.000000	2.925130
4354.000000	2.927570
4352.000000	2.930943
4350.000000	2.935524
4348.000000	2.938857
4346.000000	2.940747
4344.000000	2.942944
4342.000000	2.946482
4340.000000	2.950326
4338.000000	2.953357
4336.000000	2.956251
4334.000000	2.959236
4332.000000	2.962405
4330.000000	2.965818
4328.000000	2.968373
4326.000000	2.971309
4324.000000	2.976258
4322.000000	2.980539
4320.000000	2.983203
4318.000000	2.985344
4316.000000	2.988254
4314.000000	2.992099
4312.000000	2.995121
4310.000000	2.997204
4308.000000	3.000625
4306.000000	3.004342
4304.000000	3.007219
4302.000000	3.010199
4300.000000	3.014326
4298.000000	3.017786
4296.000000	3.019783
4294.000000	3.022206
4292.000000	3.025354
4290.000000	3.028163
4288.000000	3.031652
4286.000000	3.034940
4284.000000	3.037564
4282.000000	3.041129
4280.000000	3.045404
4278.000000	3.048079
4276.000000	3.049414
4274.000000	3.051932
4272.000000	3.055986
4270.000000	3.059642
4268.000000	3.063105
4266.000000	3.066726
4264.000000	3.069090
4262.000000	3.070714
4260.000000	3.073141
4258.000000	3.076386
4256.000000	3.079659
4254.000000	3.083070
4252.000000	3.086352
4250.000000	3.089683
4248.000000	3.093470
4246.000000	3.096797
4244.000000	3.099535
4242.000000	3.102621
4240.000000	3.105897
4238.000000	3.109440
4236.000000	3.113752
4234.000000	3.117922
4232.000000	3.120769
4230.000000	3.122569
4228.000000	3.124403
4226.000000	3.126864
4224.000000	3.131037
4222.000000	3.135415
4220.000000	3.138138
4218.000000	3.140957
4216.000000	3.144416
4214.000000	3.147244
4212.000000	3.150564
4210.000000	3.154334
4208.000000	3.157239
4206.000000	3.160470
4204.000000	3.164110
4202.000000	3.166828
4200.000000	3.170006
4198.000000	3.174489
4196.000000	3.178261
4194.000000	3.180491
4192.000000	3.182605
4190.000000	3.185993
4188.000000	3.190712
4186.000000	3.195299
4184.000000	3.198679
4182.000000	3.201290
4180.000000	3.203714
4178.000000	3.206669
4176.000000	3.210345
4174.000000	3.213469
4172.000000	3.216050
4170.000000	3.219572
4168.000000	3.224221
4166.000000	3.228596
4164.000000	3.231588
4162.000000	3.234114
4160.000000	3.236965
4158.000000	3.239757
4156.000000	3.242275
4154.000000	3.244754
4152.000000	3.247368
4150.000000	3.250858
4148.000000	3.256037
4146.000000	3.260980
4144.000000	3.263772
4142.000000	3.265872
4140.000000	3.268566
4138.000000	3.271864
4136.000000	3.275451
4134.000000	3.278900
4132.000000	3.282213
4130.000000	3.284648
4128.000000	3.287270
4126.000000	3.291532
4124.000000	3.296048
4122.000000	3.299510
4120.000000	3.302149
4118.000000	3.304230
4116.000000	3.307386
4114.000000	3.311888
4112.000000	3.316114
4110.000000	3.319585
4108.000000	3.323405
4106.000000	3.327428
4104.000000	3.330314
4102.000000	3.332640
4100.000000	3.335504
4098.000000	3.338570
4096.000000	3.341940
4094.000000	3.345302
4092.000000	3.348248
4090.000000	3.351137
4088.000000	3.354140
4086.000000	3.357429
4084.000000	3.360842
4082.000000	3.363824
4080.000000	3.366770
4078.000000	3.370283
4076.000000	3.374058
4074.000000	3.377857
4072.000000	3.381425
4070.000000	3.384331
4068.000000	3.387877
4066.000000	3.392631
4064.000000	3.396605
4062.000000	3.399391
4060.000000	3.402484
4058.000000	3.405520
4056.000000	3.408063
4054.000000	3.411115
4052.000000	3.415251
4050.000000	3.419500
4048.000000	3.422368
4046.000000	3.424423
4044.000000	3.427347
4042.000000	3.430936
4040.000000	3.434976
4038.000000	3.438610
4036.000000	3.441457
4034.000000	3.444577
4032.000000	3.447299
4030.000000	3.450465
4028.000000	3.455547
4026.000000	3.460852
4024.000000	3.465009
4022.000000	3.467892
4020.000000	3.469641
4018.000000	3.471996
4016.000000	3.475895
4014.000000	3.479671
4012.000000	3.483976
4010.000000	3.488882
4008.000000	3.491550
4006.000000	3.493205
4004.000000	3.497521
4002.000000	3.502932
4000.000000	3.506289
3998.000000	3.508357
3996.000000	3.510823
3994.000000	3.513977
3992.000000	3.516861
3990.000000	3.518956
3988.000000	3.522336
3986.000000	3.526768
3984.000000	3.530125
3982.000000	3.532323
3980.000000	3.535274
3978.000000	3.539775
3976.000000	3.543718
3974.000000	3.546519
3972.000000	3.549495
3970.000000	3.552566
3968.000000	3.555745
3966.000000	3.558960
3964.000000	3.562142
3962.000000	3.564929
3960.000000	3.568080
3958.000000	3.572357
3956.000000	3.576067
3954.000000	3.579371
3952.000000	3.582902
3950.000000	3.584727
3948.000000	3.585813
3946.000000	3.588808
3944.000000	3.591981
3942.000000	3.593746
3940.000000	3.598221
3938.000000	3.605816
3936.000000	3.610406
3934.000000	3.610379
3932.000000	3.609751
3930.000000	3.612146
3928.000000	3.617519
3926.000000	3.622112
3924.000000	3.624060
3922.000000	3.626050
3920.000000	3.628483
3918.000000	3.628618
3916.000000	3.630194
3914.000000	3.638786
3912.000000	3.650060
3910.000000	3.656965
3908.000000	3.658454
3906.000000	3.652446
3904.000000	3.638706
3902.000000	3.628415
3900.000000	3.630261
3898.000000	3.642937
3896.000000	3.661677
3894.000000	3.673353
3892.000000	3.668758
3890.000000	3.662598
3888.000000	3.667865
3886.000000	3.668053
3884.000000	3.663641
3882.000000	3.671939
3880.000000	3.680540
3878.000000	3.688192
3876.000000	3.699644
3874.000000	3.700226
3872.000000	3.691548
3870.000000	3.678575
3868.000000	3.673822
3866.000000	3.686600
3864.000000	3.695946
3862.000000	3.702095
3860.000000	3.717106
3858.000000	3.727120
3856.000000	3.708623
3854.000000	3.654839
3852.000000	3.622940
3850.000000	3.663304
3848.000000	3.725407
3846.000000	3.752184
3844.000000	3.752190
3842.000000	3.745806
3840.000000	3.733984
3838.000000	3.713146
3836.000000	3.705219
3834.000000	3.727108
3832.000000	3.752155
3830.000000	3.764564
3828.000000	3.774247
3826.000000	3.780949
3824.000000	3.780871
3822.000000	3.767787
3820.000000	3.752371
3818.000000	3.754236
3816.000000	3.754525
3814.000000	3.758256
3812.000000	3.789267
3810.000000	3.813688
3808.000000	3.804833
3806.000000	3.787064
3804.000000	3.787434
3802.000000	3.784996
3800.000000	3.774789
3798.000000	3.792258
3796.000000	3.818660
3794.000000	3.831629
3792.000000	3.842581
3790.000000	3.849629
3788.000000	3.853257
3786.000000	3.855535
3784.000000	3.855508
3782.000000	3.856577
3780.000000	3.856293
3778.000000	3.855456
3776.000000	3.862278
3774.000000	3.871695
3772.000000	3.872464
3770.000000	3.864232
3768.000000	3.860544
3766.000000	3.868126
3764.000000	3.877199
3762.000000	3.883364
3760.000000	3.882801
3758.000000	3.879807
3756.000000	3.883496
3754.000000	3.877563
3752.000000	3.845871
3750.000000	3.815334
3748.000000	3.820439
3746.000000	3.834086
3744.000000	3.820113
3742.000000	3.831152
3740.000000	3.884286
3738.000000	3.906464
3736.000000	3.888685
3734.000000	3.876870
3732.000000	3.885652
3730.000000	3.906546
3728.000000	3.928486
3726.000000	3.936319
3724.000000	3.936366
3722.000000	3.941262
3720.000000	3.949149
3718.000000	3.958066
3716.000000	3.964367
3714.000000	3.960124
3712.000000	3.940383
3710.000000	3.929148
3708.000000	3.946500
3706.000000	3.972640
3704.000000	3.985917
3702.000000	3.984820
3700.000000	3.983248
3698.000000	3.992071
3696.000000	4.002465
3694.000000	4.003959
3692.000000	3.993765
3690.000000	3.970184
3688.000000	3.947264
3686.000000	3.959651
3684.000000	3.999439
3682.000000	4.022164
3680.000000	4.022612
3678.000000	4.008163
3676.000000	3.975612
3674.000000	3.956136
3672.000000	3.971125
3670.000000	3.978957
3668.000000	3.985238
3666.000000	4.018356
3664.000000	4.046467
3662.000000	4.054821
3660.000000	4.055415
3658.000000	4.048410
3656.000000	4.034908
3654.000000	4.033044
3652.000000	4.035639
3650.000000	4.012668
3648.000000	3.990356
3646.000000	4.009420
3644.000000	4.046447
3642.000000	4.066156
3640.000000	4.072001
3638.000000	4.076085
3636.000000	4.078344
3634.000000	4.076615
3632.000000	4.069085
3630.000000	4.045821
3628.000000	4.021135
3626.000000	4.035539
3624.000000	4.071213
3622.000000	4.083145
3620.000000	4.070836
3618.000000	4.058375
3616.000000	4.064380
3614.000000	4.073442
3612.000000	4.070464
3610.000000	4.065698
3608.000000	4.063899
3606.000000	4.070820
3604.000000	4.085119
3602.000000	4.092115
3600.000000	4.091958
3598.000000	4.091510
3596.000000	4.090273
3594.000000	4.087745
3592.000000	4.088407
3590.000000	4.087563
3588.000000	4.076630
3586.000000	4.069790
3584.000000	4.080214
3582.000000	4.093506
3580.000000	4.097969
3578.000000	4.098765
3576.000000	4.099103
3574.000000	4.098678
3572.000000	4.098340
3570.000000	4.093733
3568.000000	4.080775
3566.000000	4.070655
3564.000000	4.076166
3562.000000	4.087312
3560.000000	4.093028
3558.000000	4.095527
3556.000000	4.095483
3554.000000	4.093595
3552.000000	4.090839
3550.000000	4.088920
3548.000000	4.087325
3546.000000	4.081644
3544.000000	4.077282
3542.000000	4.079648
3540.000000	4.083247
3538.000000	4.082630
3536.000000	4.079009
3534.000000	4.076539
3532.000000	4.075720
3530.000000	4.072638
3528.000000	4.066913
3526.000000	4.062348
3524.000000	4.059904
3522.000000	4.057968
3520.000000	4.057107
3518.000000	4.055837
3516.000000	4.052800
3514.000000	4.048503
3512.000000	4.043700
3510.000000	4.039088
3508.000000	4.035015
3506.000000	4.031496
3504.000000	4.026462
3502.000000	4.020872
3500.000000	4.017982
3498.000000	4.014630
3496.000000	4.008706
3494.000000	4.004418
3492.000000	4.001190
3490.000000	3.994768
3488.000000	3.987371
3486.000000	3.983525
3484.000000	3.979937
3482.000000	3.974031
3480.000000	3.968856
3478.000000	3.966206
3476.000000	3.964003
3474.000000	3.961501
3472.000000	3.958889
3470.000000	3.955056
3468.000000	3.950611
3466.000000	3.948219
3464.000000	3.947574
3462.000000	3.946187
3460.000000	3.944876
3458.000000	3.943242
3456.000000	3.940249
3454.000000	3.937624
3452.000000	3.936636
3450.000000	3.934798
3448.000000	3.929214
3446.000000	3.924103
3444.000000	3.923218
3442.000000	3.923790
3440.000000	3.922963
3438.000000	3.922733
3436.000000	3.924345
3434.000000	3.926532
3432.000000	3.928500
3430.000000	3.931090
3428.000000	3.935195
3426.000000	3.939019
3424.000000	3.941640
3422.000000	3.943274
3420.000000	3.944775
3418.000000	3.946772
3416.000000	3.949344
3414.000000	3.951725
3412.000000	3.953161
3410.000000	3.954831
3408.000000	3.955926
3406.000000	3.956050
3404.000000	3.956369
3402.000000	3.956452
3400.000000	3.957242
3398.000000	3.959059
3396.000000	3.960338
3394.000000	3.961621
3392.000000	3.963351
3390.000000	3.966318
3388.000000	3.970060
3386.000000	3.971630
3384.000000	3.971385
3382.000000	3.972146
3380.000000	3.974385
3378.000000	3.977378
3376.000000	3.980351
3374.000000	3.981214
3372.000000	3.980947
3370.000000	3.981637
3368.000000	3.981426
3366.000000	3.980274
3364.000000	3.981624
3362.000000	3.984590
3360.000000	3.987722
3358.000000	3.989947
3356.000000	3.990450
3354.000000	3.991094
3352.000000	3.992637
3350.000000	3.993280
3348.000000	3.993569
3346.000000	3.994761
3344.000000	3.997139
3342.000000	4.000203
3340.000000	4.002161
3338.000000	4.001945
3336.000000	4.001366
3334.000000	4.002418
3332.000000	4.004905
3330.000000	4.006634
3328.000000	4.006818
3326.000000	4.007646
3324.000000	4.009547
3322.000000	4.010705
3320.000000	4.011337
3318.000000	4.012431
3316.000000	4.013994
3314.000000	4.015279
3312.000000	4.015204
3310.000000	4.015953
3308.000000	4.018127
3306.000000	4.019730
3304.000000	4.021120
3302.000000	4.022091
3300.000000	4.022508
3298.000000	4.023389
3296.000000	4.024675
3294.000000	4.026477
3292.000000	4.027631
3290.000000	4.027678
3288.000000	4.028437
3286.000000	4.030599
3284.000000	4.032743
3282.000000	4.033737
3280.000000	4.034327
3278.000000	4.035375
3276.000000	4.037029
3274.000000	4.038227
3272.000000	4.037978
3270.000000	4.038813
3268.000000	4.041529
3266.000000	4.044132
3264.000000	4.045873
3262.000000	4.047305
3260.000000	4.048410
3258.000000	4.048758
3256.000000	4.049363
3254.000000	4.050614
3252.000000	4.054419
3250.000000	4.058145
3248.000000	4.059625
3246.000000	4.060905
3244.000000	4.062479
3242.000000	4.065273
3240.000000	4.068110
3238.000000	4.068339
3236.000000	4.068039
3234.000000	4.069200
3232.000000	4.070653
3230.000000	4.072844
3228.000000	4.075719
3226.000000	4.078239
3224.000000	4.079653
3222.000000	4.080371
3220.000000	4.081677
3218.000000	4.083835
3216.000000	4.086047
3214.000000	4.087481
3212.000000	4.088734
3210.000000	4.091134
3208.000000	4.094157
3206.000000	4.097126
3204.000000	4.100181
3202.000000	4.103570
3200.000000	4.106417
3198.000000	4.108815
3196.000000	4.111602
3194.000000	4.114247
3192.000000	4.117326
3190.000000	4.120930
3188.000000	4.124909
3186.000000	4.128016
3184.000000	4.130492
3182.000000	4.134138
3180.000000	4.137518
3178.000000	4.139746
3176.000000	4.142482
3174.000000	4.145468
3172.000000	4.148231
3170.000000	4.151383
3168.000000	4.154168
3166.000000	4.156885
3164.000000	4.160722
3162.000000	4.164693
3160.000000	4.167433
3158.000000	4.170011
3156.000000	4.173363
3154.000000	4.176717
3152.000000	4.179897
3150.000000	4.182464
3148.000000	4.184677
3146.000000	4.186343
3144.000000	4.188783
3142.000000	4.193312
3140.000000	4.198399
3138.000000	4.200986
3136.000000	4.202313
3134.000000	4.205590
3132.000000	4.209290
3130.000000	4.209680
3128.000000	4.209753
3126.000000	4.214341
3124.000000	4.220100
3122.000000	4.223140
3120.000000	4.223591
3118.000000	4.224398
3116.000000	4.226502
3114.000000	4.228656
3112.000000	4.231625
3110.000000	4.235326
3108.000000	4.239360
3106.000000	4.241763
3104.000000	4.243881
3102.000000	4.247287
3100.000000	4.250611
3098.000000	4.252474
3096.000000	4.254779
3094.000000	4.257995
3092.000000	4.262175
3090.000000	4.266480
3088.000000	4.268959
3086.000000	4.270797
3084.000000	4.273712
3082.000000	4.277605
3080.000000	4.281710
3078.000000	4.284270
3076.000000	4.285136
3074.000000	4.287210
3072.000000	4.289970
3070.000000	4.292290
3068.000000	4.293087
3066.000000	4.291992
3064.000000	4.292878
3062.000000	4.295765
3060.000000	4.298162
3058.000000	4.300994
3056.000000	4.305132
3054.000000	4.309353
3052.000000	4.312128
3050.000000	4.314311
3048.000000	4.316971
3046.000000	4.319903
3044.000000	4.322784
3042.000000	4.324225
3040.000000	4.325111
3038.000000	4.325519
3036.000000	4.326105
3034.000000	4.327253
3032.000000	4.327999
3030.000000	4.328519
3028.000000	4.326370
3026.000000	4.321437
3024.000000	4.317030
3022.000000	4.312614
3020.000000	4.307964
3018.000000	4.305936
3016.000000	4.308959
3014.000000	4.317481
3012.000000	4.328901
3010.000000	4.341159
3008.000000	4.352704
3006.000000	4.363231
3004.000000	4.369617
3002.000000	4.373838
3000.000000	4.380333
2998.000000	4.385155
2996.000000	4.387132
2994.000000	4.388596
2992.000000	4.388900
2990.000000	4.388122
2988.000000	4.388302
2986.000000	4.388274
2984.000000	4.386435
2982.000000	4.382361
2980.000000	4.376786
2978.000000	4.369694
2976.000000	4.360749
2974.000000	4.347060
2972.000000	4.328014
2970.000000	4.304921
2968.000000	4.277745
2966.000000	4.249349
2964.000000	4.225399
2962.000000	4.210464
2960.000000	4.206524
2958.000000	4.212918
2956.000000	4.225012
2954.000000	4.238050
2952.000000	4.249828
2950.000000	4.258424
2948.000000	4.262438
2946.000000	4.259977
2944.000000	4.250847
2942.000000	4.236282
2940.000000	4.215699
2938.000000	4.191153
2936.000000	4.166886
2934.000000	4.145128
2932.000000	4.127083
2930.000000	4.109385
2928.000000	4.091479
2926.000000	4.077826
2924.000000	4.074149
2922.000000	4.083829
2920.000000	4.107827
2918.000000	4.143820
2916.000000	4.185435
2914.000000	4.226032
2912.000000	4.260888
2910.000000	4.291518
2908.000000	4.316885
2906.000000	4.334918
2904.000000	4.349531
2902.000000	4.364101
2900.000000	4.377389
2898.000000	4.389627
2896.000000	4.402799
2894.000000	4.414542
2892.000000	4.424353
2890.000000	4.433606
2888.000000	4.442131
2886.000000	4.450340
2884.000000	4.457263
2882.000000	4.461002
2880.000000	4.462124
2878.000000	4.461396
2876.000000	4.459177
2874.000000	4.453979
2872.000000	4.444290
2870.000000	4.430973
2868.000000	4.413574
2866.000000	4.390080
2864.000000	4.362307
2862.000000	4.337672
2860.000000	4.324904
2858.000000	4.325793
2856.000000	4.336507
2854.000000	4.353041
2852.000000	4.372034
2850.000000	4.393101
2848.000000	4.418531
2846.000000	4.448278
2844.000000	4.476921
2842.000000	4.500479
2840.000000	4.518592
2838.000000	4.533273
2836.000000	4.545723
2834.000000	4.555491
2832.000000	4.563734
2830.000000	4.572018
2828.000000	4.579911
2826.000000	4.584866
2824.000000	4.588717
2822.000000	4.592509
2820.000000	4.596727
2818.000000	4.601487
2816.000000	4.605450
2814.000000	4.608663
2812.000000	4.612241
2810.000000	4.615548
2808.000000	4.617961
2806.000000	4.619913
2804.000000	4.621915
2802.000000	4.624646
2800.000000	4.628336
2798.000000	4.631648
2796.000000	4.633837
2794.000000	4.635855
2792.000000	4.637814
2790.000000	4.640553
2788.000000	4.643369
2786.000000	4.645587
2784.000000	4.649258
2782.000000	4.654565
2780.000000	4.659368
2778.000000	4.663265
2776.000000	4.666432
2774.000000	4.668664
2772.000000	4.671315
2770.000000	4.674247
2768.000000	4.675892
2766.000000	4.676540
2764.000000	4.679362
2762.000000	4.682590
2760.000000	4.683666
2758.000000	4.684347
2756.000000	4.688257
2754.000000	4.689941
2752.000000	4.687779
2750.000000	4.690146
2748.000000	4.694415
2746.000000	4.696927
2744.000000	4.697773
2742.000000	4.698960
2740.000000	4.701649
2738.000000	4.702703
2736.000000	4.702929
2734.000000	4.704122
2732.000000	4.705483
2730.000000	4.707166
2728.000000	4.708898
2726.000000	4.710175
2724.000000	4.710286
2722.000000	4.710514
2720.000000	4.712030
2718.000000	4.713198
2716.000000	4.713483
2714.000000	4.713699
2712.000000	4.714279
2710.000000	4.715208
2708.000000	4.716198
2706.000000	4.717108
2704.000000	4.716825
2702.000000	4.715926
2700.000000	4.717064
2698.000000	4.718651
2696.000000	4.720018
2694.000000	4.721452
2692.000000	4.721968
2690.000000	4.723143
2688.000000	4.724593
2686.000000	4.725853
2684.000000	4.726740
2682.000000	4.727183
2680.000000	4.727302
2678.000000	4.727659
2676.000000	4.728700
2674.000000	4.729854
2672.000000	4.729959
2670.000000	4.729587
2668.000000	4.729753
2666.000000	4.730133
2664.000000	4.730818
2662.000000	4.731402
2660.000000	4.731516
2658.000000	4.731443
2656.000000	4.731938
2654.000000	4.732812
2652.000000	4.734640
2650.000000	4.736359
2648.000000	4.737754
2646.000000	4.738224
2644.000000	4.738611
2642.000000	4.738971
2640.000000	4.740728
2638.000000	4.743151
2636.000000	4.743642
2634.000000	4.744963
2632.000000	4.748284
2630.000000	4.749004
2628.000000	4.747940
2626.000000	4.748583
2624.000000	4.750689
2622.000000	4.752878
2620.000000	4.754281
2618.000000	4.755312
2616.000000	4.756271
2614.000000	4.755329
2612.000000	4.754851
2610.000000	4.756122
2608.000000	4.757603
2606.000000	4.758205
2604.000000	4.759087
2602.000000	4.759971
2600.000000	4.760599
2598.000000	4.761060
2596.000000	4.761104
2594.000000	4.761298
2592.000000	4.762028
2590.000000	4.761795
2588.000000	4.763203
2586.000000	4.765266
2584.000000	4.767342
2582.000000	4.770251
2580.000000	4.772996
2578.000000	4.775128
2576.000000	4.777779
2574.000000	4.780299
2572.000000	4.782101
2570.000000	4.784232
2568.000000	4.786304
2566.000000	4.786924
2564.000000	4.787678
2562.000000	4.787470
2560.000000	4.789110
2558.000000	4.791812
2556.000000	4.793387
2554.000000	4.794720
2552.000000	4.794936
2550.000000	4.794598
2548.000000	4.795515
2546.000000	4.796310
2544.000000	4.798224
2542.000000	4.800138
2540.000000	4.801452
2538.000000	4.802539
2536.000000	4.803126
2534.000000	4.803897
2532.000000	4.805011
2530.000000	4.805760
2528.000000	4.807637
2526.000000	4.810555
2524.000000	4.813204
2522.000000	4.813926
2520.000000	4.814120
2518.000000	4.814512
2516.000000	4.813734
2514.000000	4.815156
2512.000000	4.817831
2510.000000	4.818557
2508.000000	4.818406
2506.000000	4.820815
2504.000000	4.823640
2502.000000	4.822818
2500.000000	4.820594
2498.000000	4.822502
2496.000000	4.825639
2494.000000	4.826446
2492.000000	4.827074
2490.000000	4.828797
2488.000000	4.829021
2486.000000	4.829481
2484.000000	4.831637
2482.000000	4.832637
2480.000000	4.832594
2478.000000	4.833054
2476.000000	4.834671
2474.000000	4.836659
2472.000000	4.838195
2470.000000	4.840115
2468.000000	4.840808
2466.000000	4.841424
2464.000000	4.842422
2462.000000	4.842088
2460.000000	4.841148
2458.000000	4.840631
2456.000000	4.840954
2454.000000	4.842310
2452.000000	4.843146
2450.000000	4.843848
2448.000000	4.844849
2446.000000	4.845272
2444.000000	4.845569
2442.000000	4.846140
2440.000000	4.847231
2438.000000	4.847938
2436.000000	4.848490
2434.000000	4.849093
2432.000000	4.849968
2430.000000	4.850284
2428.000000	4.850265
2426.000000	4.850566
2424.000000	4.850622
2422.000000	4.850451
2420.000000	4.850707
2418.000000	4.851452
2416.000000	4.852423
2414.000000	4.853510
2412.000000	4.854400
2410.000000	4.855194
2408.000000	4.855901
2406.000000	4.856627
2404.000000	4.858024
2402.000000	4.859196
2400.000000	4.859883
2398.000000	4.860071
2396.000000	4.860917
2394.000000	4.862625
2392.000000	4.863498
2390.000000	4.862287
2388.000000	4.861219
2386.000000	4.862432
2384.000000	4.863938
2382.000000	4.863053
2380.000000	4.860158
2378.000000	4.857132
2376.000000	4.850459
2374.000000	4.839638
2372.000000	4.829111
2370.000000	4.818481
2368.000000	4.805959
2366.000000	4.793531
2364.000000	4.785552
2362.000000	4.781841
2360.000000	4.782032
2358.000000	4.786686
2356.000000	4.796888
2354.000000	4.811562
2352.000000	4.829160
2350.000000	4.846554
2348.000000	4.853111
2346.000000	4.843263
2344.000000	4.826582
2342.000000	4.810520
2340.000000	4.796606
2338.000000	4.790079
2336.000000	4.793937
2334.000000	4.800094
2332.000000	4.805632
2330.000000	4.811120
2328.000000	4.816396
2326.000000	4.822707
2324.000000	4.829336
2322.000000	4.835962
2320.000000	4.841261
2318.000000	4.844891
2316.000000	4.850464
2314.000000	4.856223
2312.000000	4.859285
2310.000000	4.861638
2308.000000	4.864536
2306.000000	4.867142
2304.000000	4.868527
2302.000000	4.869929
2300.000000	4.871567
2298.000000	4.872725
2296.000000	4.873537
2294.000000	4.874672
2292.000000	4.875157
2290.000000	4.875338
2288.000000	4.875493
2286.000000	4.875752
2284.000000	4.875801
2282.000000	4.874937
2280.000000	4.873891
2278.000000	4.874046
2276.000000	4.874310
2274.000000	4.873459
2272.000000	4.873086
2270.000000	4.873773
2268.000000	4.874401
2266.000000	4.873691
2264.000000	4.873524
2262.000000	4.874067
2260.000000	4.872998
2258.000000	4.871190
2256.000000	4.871099
2254.000000	4.873951
2252.000000	4.877682
2250.000000	4.876235
2248.000000	4.875062
2246.000000	4.876243
2244.000000	4.875363
2242.000000	4.874941
2240.000000	4.876495
2238.000000	4.877995
2236.000000	4.878322
2234.000000	4.878670
2232.000000	4.880282
2230.000000	4.880938
2228.000000	4.880351
2226.000000	4.881253
2224.000000	4.882346
2222.000000	4.882904
2220.000000	4.884022
2218.000000	4.884487
2216.000000	4.885495
2214.000000	4.886483
2212.000000	4.886781
2210.000000	4.887305
2208.000000	4.887293
2206.000000	4.887504
2204.000000	4.889101
2202.000000	4.890589
2200.000000	4.890256
2198.000000	4.889429
2196.000000	4.889438
2194.000000	4.889092
2192.000000	4.888882
2190.000000	4.890556
2188.000000	4.891634
2186.000000	4.890776
2184.000000	4.890898
2182.000000	4.892717
2180.000000	4.894447
2178.000000	4.894440
2176.000000	4.893646
2174.000000	4.892917
2172.000000	4.892848
2170.000000	4.892377
2168.000000	4.892277
2166.000000	4.893856
2164.000000	4.895488
2162.000000	4.896140
2160.000000	4.897112
2158.000000	4.897595
2156.000000	4.897284
2154.000000	4.897279
2152.000000	4.896565
2150.000000	4.896377
2148.000000	4.897523
2146.000000	4.898398
2144.000000	4.899179
2142.000000	4.901467
2140.000000	4.903419
2138.000000	4.902723
2136.000000	4.901701
2134.000000	4.901134
2132.000000	4.901895
2130.000000	4.902448
2128.000000	4.904250
2126.000000	4.906016
2124.000000	4.905675
2122.000000	4.906031
2120.000000	4.906014
2118.000000	4.905275
2116.000000	4.905406
2114.000000	4.906553
2112.000000	4.907513
2110.000000	4.909515
2108.000000	4.910258
2106.000000	4.909216
2104.000000	4.909883
2102.000000	4.911871
2100.000000	4.913192
2098.000000	4.914325
2096.000000	4.916077
2094.000000	4.916906
2092.000000	4.917272
2090.000000	4.918520
2088.000000	4.920699
2086.000000	4.921717
2084.000000	4.922580
2082.000000	4.923481
2080.000000	4.923845
2078.000000	4.925537
2076.000000	4.927334
2074.000000	4.928034
2072.000000	4.927773
2070.000000	4.928518
2068.000000	4.929997
2066.000000	4.930869
2064.000000	4.931306
2062.000000	4.933239
2060.000000	4.936161
2058.000000	4.938834
2056.000000	4.940953
2054.000000	4.942481
2052.000000	4.943729
2050.000000	4.944423
2048.000000	4.945083
2046.000000	4.945984
2044.000000	4.946733
2042.000000	4.946647
2040.000000	4.947028
2038.000000	4.949440
2036.000000	4.951218
2034.000000	4.951815
2032.000000	4.952036
2030.000000	4.952187
2028.000000	4.952269
2026.000000	4.954271
2024.000000	4.955854
2022.000000	4.955865
2020.000000	4.955817
2018.000000	4.955048
2016.000000	4.955344
2014.000000	4.957801
2012.000000	4.960430
2010.000000	4.961756
2008.000000	4.961376
2006.000000	4.961939
2004.000000	4.961723
2002.000000	4.961586
2000.000000	4.962910
1998.000000	4.964685
1996.000000	4.967191
1994.000000	4.965658
1992.000000	4.961907
1990.000000	4.963318
1988.000000	4.965367
1986.000000	4.965549
1984.000000	4.966305
1982.000000	4.966874
1980.000000	4.966793
1978.000000	4.966059
1976.000000	4.964971
1974.000000	4.964281
1972.000000	4.963964
1970.000000	4.962541
1968.000000	4.959309
1966.000000	4.957549
1964.000000	4.958466
1962.000000	4.958272
1960.000000	4.953870
1958.000000	4.947608
1956.000000	4.948974
1954.000000	4.952690
1952.000000	4.952427
1950.000000	4.949109
1948.000000	4.947194
1946.000000	4.946407
1944.000000	4.941967
1942.000000	4.937540
1940.000000	4.940344
1938.000000	4.943536
1936.000000	4.942708
1934.000000	4.941243
1932.000000	4.939362
1930.000000	4.937441
1928.000000	4.936070
1926.000000	4.933389
1924.000000	4.928763
1922.000000	4.926352
1920.000000	4.924287
1918.000000	4.913374
1916.000000	4.911605
1914.000000	4.919796
1912.000000	4.920233
1910.000000	4.914771
1908.000000	4.909783
1906.000000	4.908468
1904.000000	4.907235
1902.000000	4.905181
1900.000000	4.902218
1898.000000	4.899449
1896.000000	4.896137
1894.000000	4.893404
1892.000000	4.890804
1890.000000	4.883456
1888.000000	4.882576
1886.000000	4.889074
1884.000000	4.890681
1882.000000	4.890590
1880.000000	4.888531
1878.000000	4.885093
1876.000000	4.883396
1874.000000	4.884850
1872.000000	4.880899
1870.000000	4.864996
1868.000000	4.853804
1866.000000	4.863307
1864.000000	4.872390
1862.000000	4.874467
1860.000000	4.873582
1858.000000	4.872493
1856.000000	4.872046
1854.000000	4.870021
1852.000000	4.867385
1850.000000	4.865260
1848.000000	4.860206
1846.000000	4.843390
1844.000000	4.816805
1842.000000	4.824664
1840.000000	4.847609
1838.000000	4.849649
1836.000000	4.845388
1834.000000	4.842906
1832.000000	4.834688
1830.000000	4.814911
1828.000000	4.811701
1826.000000	4.815372
1824.000000	4.811524
1822.000000	4.817695
1820.000000	4.820910
1818.000000	4.816185
1816.000000	4.810560
1814.000000	4.808043
1812.000000	4.801011
1810.000000	4.792911
1808.000000	4.791432
1806.000000	4.791797
1804.000000	4.785920
1802.000000	4.773180
1800.000000	4.761410
1798.000000	4.760908
1796.000000	4.760154
1794.000000	4.740058
1792.000000	4.712785
1790.000000	4.721525
1788.000000	4.739683
1786.000000	4.733427
1784.000000	4.721900
1782.000000	4.719120
1780.000000	4.711709
1778.000000	4.708937
1776.000000	4.703716
1774.000000	4.672406
1772.000000	4.634061
1770.000000	4.643441
1768.000000	4.660935
1766.000000	4.673957
1764.000000	4.677380
1762.000000	4.653845
1760.000000	4.647087
1758.000000	4.648100
1756.000000	4.638412
1754.000000	4.635451
1752.000000	4.605891
1750.000000	4.578988
1748.000000	4.588030
1746.000000	4.597140
1744.000000	4.594206
1742.000000	4.580929
1740.000000	4.559157
1738.000000	4.553812
1736.000000	4.533300
1734.000000	4.467253
1732.000000	4.479505
1730.000000	4.535975
1728.000000	4.554768
1726.000000	4.558878
1724.000000	4.553579
1722.000000	4.546870
1720.000000	4.520420
1718.000000	4.454761
1716.000000	4.434301
1714.000000	4.479089
1712.000000	4.509779
1710.000000	4.515335
1708.000000	4.502756
1706.000000	4.482785
1704.000000	4.470715
1702.000000	4.435741
1700.000000	4.366495
1698.000000	4.373804
1696.000000	4.372568
1694.000000	4.397183
1692.000000	4.463184
1690.000000	4.471865
1688.000000	4.457987
1686.000000	4.400620
1684.000000	4.333910
1682.000000	4.379194
1680.000000	4.440652
1678.000000	4.446044
1676.000000	4.416426
1674.000000	4.397896
1672.000000	4.410622
1670.000000	4.392612
1668.000000	4.389187
1666.000000	4.413334
1664.000000	4.407666
1662.000000	4.388252
1660.000000	4.399141
1658.000000	4.405693
1656.000000	4.370938
1654.000000	4.255781
1652.000000	4.197738
1650.000000	4.291037
1648.000000	4.324104
1646.000000	4.290487
1644.000000	4.310873
1642.000000	4.344307
1640.000000	4.342230
1638.000000	4.313318
1636.000000	4.253512
1634.000000	4.245416
1632.000000	4.291828
1630.000000	4.299558
1628.000000	4.278643
1626.000000	4.259296
1624.000000	4.233251
1622.000000	4.212212
1620.000000	4.204923
1618.000000	4.156636
1616.000000	4.105945
1614.000000	4.121689
1612.000000	4.125492
1610.000000	4.093978
1608.000000	4.072147
1606.000000	4.068465
1604.000000	4.075174
1602.000000	4.084731
1600.000000	4.097662
1598.000000	4.108391
1596.000000	4.115693
1594.000000	4.119954
1592.000000	4.124731
1590.000000	4.126492
1588.000000	4.125707
1586.000000	4.121439
1584.000000	4.116262
1582.000000	4.113422
1580.000000	4.111117
1578.000000	4.079464
1576.000000	4.027075
1574.000000	4.049806
1572.000000	4.087220
1570.000000	4.064701
1568.000000	4.059411
1566.000000	4.071033
1564.000000	4.062596
1562.000000	4.021633
1560.000000	3.918984
1558.000000	3.871521
1556.000000	3.940716
1554.000000	3.991958
1552.000000	4.024935
1550.000000	4.046873
1548.000000	4.057369
1546.000000	4.055239
1544.000000	4.035594
1542.000000	4.000629
1540.000000	3.958865
1538.000000	3.993154
1536.000000	4.078110
1534.000000	4.092873
1532.000000	4.097919
1530.000000	4.121828
1528.000000	4.119439
1526.000000	4.102153
1524.000000	4.087736
1522.000000	4.049617
1520.000000	4.036536
1518.000000	4.064478
1516.000000	4.069086
1514.000000	4.071593
1512.000000	4.065548
1510.000000	4.047226
1508.000000	3.983349
1506.000000	3.918968
1504.000000	3.944481
1502.000000	3.953859
1500.000000	3.859635
1498.000000	3.705066
1496.000000	3.562141
1494.000000	3.520500
1492.000000	3.559693
1490.000000	3.627839
1488.000000	3.717460
1486.000000	3.802977
1484.000000	3.865054
1482.000000	3.898180
1480.000000	3.913187
1478.000000	3.913743
1476.000000	3.895568
1474.000000	3.863993
1472.000000	3.841558
1470.000000	3.861130
1468.000000	3.871913
1466.000000	3.844438
1464.000000	3.817752
1462.000000	3.812980
1460.000000	3.780167
1458.000000	3.690249
1456.000000	3.619104
1454.000000	3.621392
1452.000000	3.614115
1450.000000	3.605942
1448.000000	3.633016
1446.000000	3.681502
1444.000000	3.717733
1442.000000	3.729160
1440.000000	3.724964
1438.000000	3.699419
1436.000000	3.679898
1434.000000	3.709132
1432.000000	3.728123
1430.000000	3.722516
1428.000000	3.723339
1426.000000	3.728037
1424.000000	3.723130
1422.000000	3.713170
1420.000000	3.680193
1418.000000	3.665371
1416.000000	3.685376
1414.000000	3.690146
1412.000000	3.678432
1410.000000	3.655506
1408.000000	3.623365
1406.000000	3.583534
1404.000000	3.554659
1402.000000	3.551085
1400.000000	3.555551
1398.000000	3.569275
1396.000000	3.588204
1394.000000	3.601679
1392.000000	3.623634
1390.000000	3.632941
1388.000000	3.617425
1386.000000	3.602282
1384.000000	3.600987
1382.000000	3.605669
1380.000000	3.612473
1378.000000	3.610897
1376.000000	3.601324
1374.000000	3.591209
1372.000000	3.592771
1370.000000	3.593896
1368.000000	3.588205
1366.000000	3.580884
1364.000000	3.568239
1362.000000	3.555522
1360.000000	3.553033
1358.000000	3.550449
1356.000000	3.542400
1354.000000	3.532095
1352.000000	3.523299
1350.000000	3.514036
1348.000000	3.503865
1346.000000	3.493564
1344.000000	3.483262
1342.000000	3.470434
1340.000000	3.455295
1338.000000	3.447075
1336.000000	3.445595
1334.000000	3.443978
1332.000000	3.440589
1330.000000	3.432104
1328.000000	3.420813
1326.000000	3.409877
1324.000000	3.399428
1322.000000	3.387191
1320.000000	3.371898
1318.000000	3.355854
1316.000000	3.342567
1314.000000	3.330441
1312.000000	3.316607
1310.000000	3.301981
1308.000000	3.287505
1306.000000	3.272639
1304.000000	3.257552
1302.000000	3.242936
1300.000000	3.227211
1298.000000	3.209832
1296.000000	3.193160
1294.000000	3.176633
1292.000000	3.159456
1290.000000	3.141561
1288.000000	3.123438
1286.000000	3.104210
1284.000000	3.082971
1282.000000	3.063051
1280.000000	3.043256
1278.000000	3.019373
1276.000000	2.993230
1274.000000	2.965415
1272.000000	2.931398
1270.000000	2.887885
1268.000000	2.832581
1266.000000	2.764351
1264.000000	2.687173
1262.000000	2.617877
1260.000000	2.577991
1258.000000	2.574528
1256.000000	2.595355
1254.000000	2.619498
1252.000000	2.631794
1250.000000	2.626258
1248.000000	2.609563
1246.000000	2.589146
1244.000000	2.565852
1242.000000	2.539850
1240.000000	2.514695
1238.000000	2.490484
1236.000000	2.466572
1234.000000	2.443565
1232.000000	2.422358
1230.000000	2.401103
1228.000000	2.378842
1226.000000	2.356810
1224.000000	2.334795
1222.000000	2.310546
1220.000000	2.285857
1218.000000	2.261693
1216.000000	2.236471
1214.000000	2.210854
1212.000000	2.186835
1210.000000	2.164774
1208.000000	2.144171
1206.000000	2.124763
1204.000000	2.105021
1202.000000	2.084277
1200.000000	2.065169
1198.000000	2.047699
1196.000000	2.029317
1194.000000	2.008206
1192.000000	1.987154
1190.000000	1.966914
1188.000000	1.945760
1186.000000	1.922709
1184.000000	1.896023
1182.000000	1.861548
1180.000000	1.830184
1178.000000	1.815403
1176.000000	1.805607
1174.000000	1.788748
1172.000000	1.767891
1170.000000	1.746532
1168.000000	1.725225
1166.000000	1.702655
1164.000000	1.679062
1162.000000	1.656681
1160.000000	1.635781
1158.000000	1.614414
1156.000000	1.592730
1154.000000	1.572392
1152.000000	1.553079
1150.000000	1.532539
1148.000000	1.511256
1146.000000	1.490072
1144.000000	1.469461
1142.000000	1.451287
1140.000000	1.436430
1138.000000	1.422258
1136.000000	1.405558
1134.000000	1.386755
1132.000000	1.368188
1130.000000	1.349468
1128.000000	1.330077
1126.000000	1.309442
1124.000000	1.287798
1122.000000	1.267470
1120.000000	1.247218
1118.000000	1.226256
1116.000000	1.205808
1114.000000	1.184422
1112.000000	1.162789
1110.000000	1.141758
1108.000000	1.120241
1106.000000	1.099296
1104.000000	1.079218
1102.000000	1.059244
1100.000000	1.039972
1098.000000	1.020309
1096.000000	1.001542
1094.000000	0.983240
1092.000000	0.967712
1090.000000	0.952987
1088.000000	0.937290
1086.000000	0.922248
1084.000000	0.907823
1082.000000	0.892235
1080.000000	0.877923
1078.000000	0.865601
1076.000000	0.853609
1074.000000	0.842878
1072.000000	0.833946
1070.000000	0.824527
1068.000000	0.814150
1066.000000	0.803781
1064.000000	0.795288
1062.000000	0.787099
1060.000000	0.777251
1058.000000	0.765805
1056.000000	0.751553
1054.000000	0.730130
1052.000000	0.707062
1050.000000	0.692492
1048.000000	0.689420
1046.000000	0.693085
1044.000000	0.694818
1042.000000	0.691057
1040.000000	0.682570
1038.000000	0.673440
1036.000000	0.664193
1034.000000	0.654551
1032.000000	0.644828
1030.000000	0.634207
1028.000000	0.622415
1026.000000	0.609879
1024.000000	0.598265
1022.000000	0.587720
1020.000000	0.576880
1018.000000	0.565895
1016.000000	0.557158
1014.000000	0.551591
1012.000000	0.547443
1010.000000	0.541907
1008.000000	0.534738
1006.000000	0.527343
1004.000000	0.519978
1002.000000	0.513582
1000.000000	0.506839
