PE IR       SUBTECH     SPECTRUM    ASCII       PEDS        4.00        
   -1
TE110A_035_80K_AFTER_105K_BG.ASC
20/05/14
12:53:27.00
20/05/14
12:53:27.00
Administrator
TE110A.Thursday, May 14 2020, 004.
1000.000000
#HDR
-1
-1
#GR
cm-1
EGY
1.0
0.0
6000.000000
-2.000000
2501
8
105.438951
11.022978
#DATA
6000.000000	16.655485
5998.000000	16.687773
5996.000000	16.720610
5994.000000	16.753666
5992.000000	16.786491
5990.000000	16.819965
5988.000000	16.852641
5986.000000	16.885012
5984.000000	16.918400
5982.000000	16.952112
5980.000000	16.985316
5978.000000	17.017605
5976.000000	17.050894
5974.000000	17.085941
5972.000000	17.120286
5970.000000	17.154074
5968.000000	17.187788
5966.000000	17.221880
5964.000000	17.255846
5962.000000	17.289343
5960.000000	17.323745
5958.000000	17.358927
5956.000000	17.393762
5954.000000	17.427720
5952.000000	17.461201
5950.000000	17.495172
5948.000000	17.529454
5946.000000	17.563743
5944.000000	17.596847
5942.000000	17.630683
5940.000000	17.665125
5938.000000	17.700002
5936.000000	17.733805
5934.000000	17.766548
5932.000000	17.799296
5930.000000	17.833187
5928.000000	17.867872
5926.000000	17.903249
5924.000000	17.938685
5922.000000	17.974161
5920.000000	18.009792
5918.000000	18.045829
5916.000000	18.081493
5914.000000	18.117326
5912.000000	18.153806
5910.000000	18.191081
5908.000000	18.227957
5906.000000	18.264441
5904.000000	18.300268
5902.000000	18.336333
5900.000000	18.372418
5898.000000	18.408717
5896.000000	18.444848
5894.000000	18.480823
5892.000000	18.516992
5890.000000	18.553469
5888.000000	18.590434
5886.000000	18.626569
5884.000000	18.661934
5882.000000	18.696916
5880.000000	18.732370
5878.000000	18.768829
5876.000000	18.805162
5874.000000	18.841926
5872.000000	18.878370
5870.000000	18.915284
5868.000000	18.951723
5866.000000	18.989370
5864.000000	19.027358
5862.000000	19.065372
5860.000000	19.102293
5858.000000	19.139511
5856.000000	19.177646
5854.000000	19.215267
5852.000000	19.253904
5850.000000	19.292509
5848.000000	19.331921
5846.000000	19.372425
5844.000000	19.412172
5842.000000	19.452492
5840.000000	19.493198
5838.000000	19.534853
5836.000000	19.577066
5834.000000	19.618345
5832.000000	19.659371
5830.000000	19.701154
5828.000000	19.742157
5826.000000	19.783162
5824.000000	19.823968
5822.000000	19.865809
5820.000000	19.906988
5818.000000	19.946803
5816.000000	19.985935
5814.000000	20.026005
5812.000000	20.067114
5810.000000	20.108861
5808.000000	20.149593
5806.000000	20.190359
5804.000000	20.230989
5802.000000	20.271907
5800.000000	20.313400
5798.000000	20.353726
5796.000000	20.393958
5794.000000	20.434161
5792.000000	20.475168
5790.000000	20.517092
5788.000000	20.558644
5786.000000	20.600258
5784.000000	20.641713
5782.000000	20.683255
5780.000000	20.723794
5778.000000	20.764597
5776.000000	20.806258
5774.000000	20.848906
5772.000000	20.892220
5770.000000	20.934545
5768.000000	20.976318
5766.000000	21.017638
5764.000000	21.059047
5762.000000	21.101215
5760.000000	21.142818
5758.000000	21.184812
5756.000000	21.226793
5754.000000	21.269325
5752.000000	21.311285
5750.000000	21.352417
5748.000000	21.393921
5746.000000	21.435604
5744.000000	21.477108
5742.000000	21.517647
5740.000000	21.557027
5738.000000	21.596340
5736.000000	21.636356
5734.000000	21.677564
5732.000000	21.718425
5730.000000	21.758836
5728.000000	21.799220
5726.000000	21.840244
5724.000000	21.881843
5722.000000	21.923545
5720.000000	21.965201
5718.000000	22.007661
5716.000000	22.050779
5714.000000	22.094199
5712.000000	22.137877
5710.000000	22.181304
5708.000000	22.225722
5706.000000	22.270489
5704.000000	22.315073
5702.000000	22.358680
5700.000000	22.401654
5698.000000	22.446349
5696.000000	22.491827
5694.000000	22.537908
5692.000000	22.582870
5690.000000	22.628635
5688.000000	22.674706
5686.000000	22.720050
5684.000000	22.765331
5682.000000	22.811126
5680.000000	22.856577
5678.000000	22.901304
5676.000000	22.945348
5674.000000	22.990196
5672.000000	23.035343
5670.000000	23.080673
5668.000000	23.125622
5666.000000	23.170602
5664.000000	23.216120
5662.000000	23.262749
5660.000000	23.309370
5658.000000	23.355081
5656.000000	23.399978
5654.000000	23.445959
5652.000000	23.491646
5650.000000	23.537173
5648.000000	23.582111
5646.000000	23.627615
5644.000000	23.672598
5642.000000	23.716924
5640.000000	23.761468
5638.000000	23.806988
5636.000000	23.852466
5634.000000	23.897476
5632.000000	23.942394
5630.000000	23.988438
5628.000000	24.034345
5626.000000	24.078970
5624.000000	24.123288
5622.000000	24.168839
5620.000000	24.215071
5618.000000	24.260922
5616.000000	24.306090
5614.000000	24.352400
5612.000000	24.398013
5610.000000	24.443316
5608.000000	24.487672
5606.000000	24.531546
5604.000000	24.576741
5602.000000	24.623403
5600.000000	24.670639
5598.000000	24.716898
5596.000000	24.762595
5594.000000	24.809974
5592.000000	24.857433
5590.000000	24.904434
5588.000000	24.951492
5586.000000	24.998671
5584.000000	25.045800
5582.000000	25.092021
5580.000000	25.137785
5578.000000	25.184390
5576.000000	25.231274
5574.000000	25.279592
5572.000000	25.328195
5570.000000	25.376398
5568.000000	25.423004
5566.000000	25.469502
5564.000000	25.516740
5562.000000	25.565092
5560.000000	25.612867
5558.000000	25.660372
5556.000000	25.707066
5554.000000	25.753698
5552.000000	25.800768
5550.000000	25.848311
5548.000000	25.896890
5546.000000	25.945505
5544.000000	25.993249
5542.000000	26.039395
5540.000000	26.084788
5538.000000	26.131750
5536.000000	26.179690
5534.000000	26.228455
5532.000000	26.276294
5530.000000	26.323875
5528.000000	26.371120
5526.000000	26.417416
5524.000000	26.463341
5522.000000	26.510059
5520.000000	26.557517
5518.000000	26.606056
5516.000000	26.655292
5514.000000	26.704382
5512.000000	26.749838
5510.000000	26.792519
5508.000000	26.837897
5506.000000	26.887603
5504.000000	26.938759
5502.000000	26.987763
5500.000000	27.035341
5498.000000	27.080111
5496.000000	27.119331
5494.000000	27.158219
5492.000000	27.201473
5490.000000	27.253320
5488.000000	27.310747
5486.000000	27.369655
5484.000000	27.425407
5482.000000	27.475763
5480.000000	27.517333
5478.000000	27.551923
5476.000000	27.591669
5474.000000	27.644360
5472.000000	27.704256
5470.000000	27.757201
5468.000000	27.804489
5466.000000	27.850569
5464.000000	27.894400
5462.000000	27.939108
5460.000000	27.989971
5458.000000	28.047405
5456.000000	28.106255
5454.000000	28.157706
5452.000000	28.199723
5450.000000	28.233958
5448.000000	28.269679
5446.000000	28.313000
5444.000000	28.360390
5442.000000	28.415792
5440.000000	28.472810
5438.000000	28.522689
5436.000000	28.567573
5434.000000	28.613114
5432.000000	28.657240
5430.000000	28.701732
5428.000000	28.757283
5426.000000	28.826495
5424.000000	28.893031
5422.000000	28.949257
5420.000000	28.997559
5418.000000	29.029602
5416.000000	29.049265
5414.000000	29.075438
5412.000000	29.123796
5410.000000	29.192724
5408.000000	29.264443
5406.000000	29.329061
5404.000000	29.385414
5402.000000	29.436945
5400.000000	29.481296
5398.000000	29.514315
5396.000000	29.545211
5394.000000	29.592972
5392.000000	29.656721
5390.000000	29.718320
5388.000000	29.765196
5386.000000	29.811477
5384.000000	29.869359
5382.000000	29.927386
5380.000000	29.966790
5378.000000	29.999881
5376.000000	30.048089
5374.000000	30.116540
5372.000000	30.185976
5370.000000	30.246251
5368.000000	30.295847
5366.000000	30.340954
5364.000000	30.388205
5362.000000	30.441708
5360.000000	30.495821
5358.000000	30.537300
5356.000000	30.567155
5354.000000	30.603732
5352.000000	30.655988
5350.000000	30.712572
5348.000000	30.751057
5346.000000	30.785617
5344.000000	30.833860
5342.000000	30.886707
5340.000000	30.934153
5338.000000	30.986735
5336.000000	31.054939
5334.000000	31.123873
5332.000000	31.177763
5330.000000	31.221467
5328.000000	31.270624
5326.000000	31.330282
5324.000000	31.395852
5322.000000	31.455268
5320.000000	31.506471
5318.000000	31.555006
5316.000000	31.604097
5314.000000	31.655794
5312.000000	31.703741
5310.000000	31.745130
5308.000000	31.789389
5306.000000	31.843898
5304.000000	31.902917
5302.000000	31.957446
5300.000000	32.009756
5298.000000	32.063754
5296.000000	32.115865
5294.000000	32.158446
5292.000000	32.197594
5290.000000	32.245191
5288.000000	32.301528
5286.000000	32.359009
5284.000000	32.412418
5282.000000	32.467322
5280.000000	32.524289
5278.000000	32.581702
5276.000000	32.638274
5274.000000	32.690444
5272.000000	32.736514
5270.000000	32.779070
5268.000000	32.815100
5266.000000	32.848276
5264.000000	32.891907
5262.000000	32.956674
5260.000000	33.028110
5258.000000	33.083087
5256.000000	33.127046
5254.000000	33.176265
5252.000000	33.226345
5250.000000	33.268369
5248.000000	33.309644
5246.000000	33.364635
5244.000000	33.433144
5242.000000	33.502289
5240.000000	33.565613
5238.000000	33.619731
5236.000000	33.667446
5234.000000	33.712772
5232.000000	33.761158
5230.000000	33.809012
5228.000000	33.849277
5226.000000	33.892205
5224.000000	33.949988
5222.000000	34.016636
5220.000000	34.075843
5218.000000	34.130499
5216.000000	34.187458
5214.000000	34.242122
5212.000000	34.283918
5210.000000	34.311417
5208.000000	34.343927
5206.000000	34.402021
5204.000000	34.479571
5202.000000	34.551895
5200.000000	34.605826
5198.000000	34.654736
5196.000000	34.709593
5194.000000	34.768746
5192.000000	34.823555
5190.000000	34.873465
5188.000000	34.922008
5186.000000	34.973737
5184.000000	35.029663
5182.000000	35.089481
5180.000000	35.148417
5178.000000	35.204904
5176.000000	35.259848
5174.000000	35.312886
5172.000000	35.365803
5170.000000	35.421252
5168.000000	35.476452
5166.000000	35.528326
5164.000000	35.580154
5162.000000	35.635972
5160.000000	35.692498
5158.000000	35.746234
5156.000000	35.799958
5154.000000	35.856395
5152.000000	35.913950
5150.000000	35.970298
5148.000000	36.025017
5146.000000	36.078352
5144.000000	36.130497
5142.000000	36.183575
5140.000000	36.238617
5138.000000	36.294090
5136.000000	36.347277
5134.000000	36.400660
5132.000000	36.455281
5130.000000	36.510584
5128.000000	36.565723
5126.000000	36.620570
5124.000000	36.673918
5122.000000	36.726085
5120.000000	36.778663
5118.000000	36.833412
5116.000000	36.888718
5114.000000	36.944340
5112.000000	36.999687
5110.000000	37.055534
5108.000000	37.110616
5106.000000	37.164609
5104.000000	37.218912
5102.000000	37.275245
5100.000000	37.331556
5098.000000	37.386738
5096.000000	37.441610
5094.000000	37.497698
5092.000000	37.553770
5090.000000	37.610183
5088.000000	37.667263
5086.000000	37.725036
5084.000000	37.781945
5082.000000	37.839197
5080.000000	37.896358
5078.000000	37.953695
5076.000000	38.009295
5074.000000	38.064392
5072.000000	38.119752
5070.000000	38.176425
5068.000000	38.233831
5066.000000	38.291575
5064.000000	38.348396
5062.000000	38.404525
5060.000000	38.460215
5058.000000	38.516015
5056.000000	38.570689
5054.000000	38.625809
5052.000000	38.682475
5050.000000	38.739935
5048.000000	38.796905
5046.000000	38.853632
5044.000000	38.909329
5042.000000	38.964945
5040.000000	39.020778
5038.000000	39.077444
5036.000000	39.133513
5034.000000	39.189309
5032.000000	39.245051
5030.000000	39.301082
5028.000000	39.356840
5026.000000	39.412318
5024.000000	39.467958
5022.000000	39.524454
5020.000000	39.580638
5018.000000	39.637264
5016.000000	39.693679
5014.000000	39.749288
5012.000000	39.804621
5010.000000	39.861906
5008.000000	39.920459
5006.000000	39.978262
5004.000000	40.035114
5002.000000	40.093135
5000.000000	40.150872
4998.000000	40.207548
4996.000000	40.263936
4994.000000	40.322521
4992.000000	40.381214
4990.000000	40.439649
4988.000000	40.498391
4986.000000	40.557718
4984.000000	40.616325
4982.000000	40.674723
4980.000000	40.732667
4978.000000	40.789693
4976.000000	40.846556
4974.000000	40.904542
4972.000000	40.962599
4970.000000	41.020296
4968.000000	41.078000
4966.000000	41.136240
4964.000000	41.194231
4962.000000	41.251694
4960.000000	41.308133
4958.000000	41.365627
4956.000000	41.423647
4954.000000	41.481327
4952.000000	41.537575
4950.000000	41.593377
4948.000000	41.648934
4946.000000	41.705907
4944.000000	41.763908
4942.000000	41.821870
4940.000000	41.878175
4938.000000	41.933814
4936.000000	41.989923
4934.000000	42.047478
4932.000000	42.105215
4930.000000	42.162684
4928.000000	42.219413
4926.000000	42.276050
4924.000000	42.332308
4922.000000	42.389047
4920.000000	42.446156
4918.000000	42.504147
4916.000000	42.561733
4914.000000	42.618571
4912.000000	42.675078
4910.000000	42.733419
4908.000000	42.793158
4906.000000	42.852596
4904.000000	42.910882
4902.000000	42.970451
4900.000000	43.030146
4898.000000	43.088265
4896.000000	43.145474
4894.000000	43.204948
4892.000000	43.265594
4890.000000	43.326419
4888.000000	43.385833
4886.000000	43.445401
4884.000000	43.504401
4882.000000	43.563386
4880.000000	43.621760
4878.000000	43.680644
4876.000000	43.739506
4874.000000	43.798389
4872.000000	43.857397
4870.000000	43.917471
4868.000000	43.976736
4866.000000	44.034984
4864.000000	44.092467
4862.000000	44.149807
4860.000000	44.206817
4858.000000	44.265276
4856.000000	44.324620
4854.000000	44.382969
4852.000000	44.440129
4850.000000	44.497867
4848.000000	44.555691
4846.000000	44.614464
4844.000000	44.672309
4842.000000	44.729430
4840.000000	44.786075
4838.000000	44.844531
4836.000000	44.903162
4834.000000	44.961829
4832.000000	45.019540
4830.000000	45.076642
4828.000000	45.133647
4826.000000	45.191727
4824.000000	45.250035
4822.000000	45.308604
4820.000000	45.366966
4818.000000	45.425507
4816.000000	45.484320
4814.000000	45.543634
4812.000000	45.602035
4810.000000	45.660285
4808.000000	45.719061
4806.000000	45.778486
4804.000000	45.838634
4802.000000	45.900544
4800.000000	45.961522
4798.000000	46.021099
4796.000000	46.080626
4794.000000	46.141384
4792.000000	46.202314
4790.000000	46.263488
4788.000000	46.323375
4786.000000	46.383111
4784.000000	46.443607
4782.000000	46.504889
4780.000000	46.565051
4778.000000	46.624737
4776.000000	46.683569
4774.000000	46.743635
4772.000000	46.803795
4770.000000	46.863589
4768.000000	46.923167
4766.000000	46.983544
4764.000000	47.042661
4762.000000	47.100441
4760.000000	47.158594
4758.000000	47.217780
4756.000000	47.276989
4754.000000	47.336203
4752.000000	47.393865
4750.000000	47.451020
4748.000000	47.508668
4746.000000	47.568138
4744.000000	47.625943
4742.000000	47.682967
4740.000000	47.740455
4738.000000	47.799380
4736.000000	47.857208
4734.000000	47.914732
4732.000000	47.972399
4730.000000	48.031088
4728.000000	48.090302
4726.000000	48.150687
4724.000000	48.210669
4722.000000	48.270520
4720.000000	48.330098
4718.000000	48.390872
4716.000000	48.452449
4714.000000	48.514468
4712.000000	48.575932
4710.000000	48.637921
4708.000000	48.699876
4706.000000	48.762998
4704.000000	48.827014
4702.000000	48.890452
4700.000000	48.952084
4698.000000	49.015329
4696.000000	49.079428
4694.000000	49.142223
4692.000000	49.202797
4690.000000	49.263148
4688.000000	49.323208
4686.000000	49.384629
4684.000000	49.446731
4682.000000	49.508699
4680.000000	49.570005
4678.000000	49.632137
4676.000000	49.694157
4674.000000	49.755955
4672.000000	49.817204
4670.000000	49.878172
4668.000000	49.938182
4666.000000	49.999474
4664.000000	50.061321
4662.000000	50.122280
4660.000000	50.182152
4658.000000	50.244293
4656.000000	50.306288
4654.000000	50.366834
4652.000000	50.426363
4650.000000	50.487152
4648.000000	50.548390
4646.000000	50.610526
4644.000000	50.672378
4642.000000	50.733420
4640.000000	50.793622
4638.000000	50.854595
4636.000000	50.915717
4634.000000	50.976921
4632.000000	51.038176
4630.000000	51.099881
4628.000000	51.161100
4626.000000	51.221968
4624.000000	51.281864
4622.000000	51.343120
4620.000000	51.405887
4618.000000	51.469421
4616.000000	51.532692
4614.000000	51.596332
4612.000000	51.659592
4610.000000	51.723829
4608.000000	51.787917
4606.000000	51.852369
4604.000000	51.917886
4602.000000	51.984211
4600.000000	52.049405
4598.000000	52.115206
4596.000000	52.180481
4594.000000	52.244843
4592.000000	52.308821
4590.000000	52.373969
4588.000000	52.438474
4586.000000	52.502561
4584.000000	52.565882
4582.000000	52.629356
4580.000000	52.693571
4578.000000	52.759706
4576.000000	52.824407
4574.000000	52.887374
4572.000000	52.950778
4570.000000	53.015668
4568.000000	53.079053
4566.000000	53.142236
4564.000000	53.206192
4562.000000	53.270618
4560.000000	53.333429
4558.000000	53.395969
4556.000000	53.458218
4554.000000	53.520876
4552.000000	53.583661
4550.000000	53.646721
4548.000000	53.708362
4546.000000	53.770176
4544.000000	53.832471
4542.000000	53.895203
4540.000000	53.957900
4538.000000	54.021900
4536.000000	54.085209
4534.000000	54.146779
4532.000000	54.207541
4530.000000	54.270676
4528.000000	54.335199
4526.000000	54.400163
4524.000000	54.464433
4522.000000	54.529259
4520.000000	54.593678
4518.000000	54.657425
4516.000000	54.720168
4514.000000	54.784169
4512.000000	54.849748
4510.000000	54.915917
4508.000000	54.980704
4506.000000	55.045990
4504.000000	55.111985
4502.000000	55.178065
4500.000000	55.242905
4498.000000	55.308082
4496.000000	55.373534
4494.000000	55.439886
4492.000000	55.505901
4490.000000	55.571537
4488.000000	55.636208
4486.000000	55.701731
4484.000000	55.766803
4482.000000	55.831151
4480.000000	55.894728
4478.000000	55.958812
4476.000000	56.022589
4474.000000	56.086085
4472.000000	56.148439
4470.000000	56.211730
4468.000000	56.274953
4466.000000	56.338235
4464.000000	56.400684
4462.000000	56.463166
4460.000000	56.524557
4458.000000	56.586288
4456.000000	56.647923
4454.000000	56.710673
4452.000000	56.772960
4450.000000	56.834803
4448.000000	56.896738
4446.000000	56.959715
4444.000000	57.021772
4442.000000	57.083898
4440.000000	57.146805
4438.000000	57.210748
4436.000000	57.274226
4434.000000	57.337371
4432.000000	57.399688
4430.000000	57.462508
4428.000000	57.525140
4426.000000	57.588548
4424.000000	57.652097
4422.000000	57.716259
4420.000000	57.779928
4418.000000	57.844067
4416.000000	57.908109
4414.000000	57.972636
4412.000000	58.036704
4410.000000	58.101404
4408.000000	58.166119
4406.000000	58.231222
4404.000000	58.295413
4402.000000	58.358940
4400.000000	58.422088
4398.000000	58.486245
4396.000000	58.550242
4394.000000	58.614617
4392.000000	58.678525
4390.000000	58.741955
4388.000000	58.804306
4386.000000	58.866691
4384.000000	58.927964
4382.000000	58.988831
4380.000000	59.048724
4378.000000	59.108643
4376.000000	59.168879
4374.000000	59.230423
4372.000000	59.290256
4370.000000	59.349341
4368.000000	59.408797
4366.000000	59.469371
4364.000000	59.529792
4362.000000	59.591654
4360.000000	59.653409
4358.000000	59.714871
4356.000000	59.776369
4354.000000	59.839642
4352.000000	59.903658
4350.000000	59.967839
4348.000000	60.030489
4346.000000	60.093616
4344.000000	60.157189
4342.000000	60.220392
4340.000000	60.282466
4338.000000	60.344858
4336.000000	60.406846
4334.000000	60.470284
4332.000000	60.535424
4330.000000	60.602007
4328.000000	60.667244
4326.000000	60.731754
4324.000000	60.796564
4322.000000	60.863355
4320.000000	60.930315
4318.000000	60.998272
4316.000000	61.066414
4314.000000	61.133752
4312.000000	61.199691
4310.000000	61.267606
4308.000000	61.336375
4306.000000	61.404906
4304.000000	61.471178
4302.000000	61.535772
4300.000000	61.599591
4298.000000	61.664777
4296.000000	61.730067
4294.000000	61.795794
4292.000000	61.860262
4290.000000	61.923951
4288.000000	61.986899
4286.000000	62.050108
4284.000000	62.111949
4282.000000	62.172705
4280.000000	62.231904
4278.000000	62.291357
4276.000000	62.350836
4274.000000	62.410461
4272.000000	62.469648
4270.000000	62.530279
4268.000000	62.590802
4266.000000	62.649944
4264.000000	62.708399
4262.000000	62.770338
4260.000000	62.833622
4258.000000	62.896256
4256.000000	62.958427
4254.000000	63.022042
4252.000000	63.085743
4250.000000	63.150225
4248.000000	63.214033
4246.000000	63.277593
4244.000000	63.340661
4242.000000	63.404463
4240.000000	63.468438
4238.000000	63.533529
4236.000000	63.598092
4234.000000	63.663349
4232.000000	63.728800
4230.000000	63.793795
4228.000000	63.857508
4226.000000	63.922076
4224.000000	63.985761
4222.000000	64.049143
4220.000000	64.112928
4218.000000	64.177221
4216.000000	64.240875
4214.000000	64.305568
4212.000000	64.370490
4210.000000	64.436509
4208.000000	64.502887
4206.000000	64.570312
4204.000000	64.638091
4202.000000	64.706180
4200.000000	64.773137
4198.000000	64.840844
4196.000000	64.909790
4194.000000	64.979476
4192.000000	65.047993
4190.000000	65.117235
4188.000000	65.185382
4186.000000	65.252048
4184.000000	65.317886
4182.000000	65.384709
4180.000000	65.450539
4178.000000	65.515841
4176.000000	65.580202
4174.000000	65.644585
4172.000000	65.708749
4170.000000	65.774179
4168.000000	65.838677
4166.000000	65.902282
4164.000000	65.965923
4162.000000	66.030588
4160.000000	66.094342
4158.000000	66.158250
4156.000000	66.222433
4154.000000	66.287460
4152.000000	66.352507
4150.000000	66.418496
4148.000000	66.483617
4146.000000	66.548234
4144.000000	66.612739
4142.000000	66.677553
4140.000000	66.741763
4138.000000	66.807262
4136.000000	66.873104
4134.000000	66.939564
4132.000000	67.005927
4130.000000	67.072432
4128.000000	67.138420
4126.000000	67.204747
4124.000000	67.270253
4122.000000	67.335980
4120.000000	67.402098
4118.000000	67.469216
4116.000000	67.535175
4114.000000	67.601096
4112.000000	67.667082
4110.000000	67.731654
4108.000000	67.792960
4106.000000	67.855273
4104.000000	67.920143
4102.000000	67.987060
4100.000000	68.052834
4098.000000	68.117289
4096.000000	68.180970
4094.000000	68.245878
4092.000000	68.311082
4090.000000	68.377488
4088.000000	68.445384
4086.000000	68.515989
4084.000000	68.585724
4082.000000	68.653358
4080.000000	68.719645
4078.000000	68.786552
4076.000000	68.853219
4074.000000	68.920650
4072.000000	68.986944
4070.000000	69.052162
4068.000000	69.116331
4066.000000	69.181116
4064.000000	69.245682
4062.000000	69.309846
4060.000000	69.373758
4058.000000	69.439539
4056.000000	69.505667
4054.000000	69.571398
4052.000000	69.634309
4050.000000	69.697051
4048.000000	69.759345
4046.000000	69.820176
4044.000000	69.884827
4042.000000	69.956159
4040.000000	70.026105
4038.000000	70.093757
4036.000000	70.159556
4034.000000	70.224490
4032.000000	70.289908
4030.000000	70.357108
4028.000000	70.423096
4026.000000	70.489832
4024.000000	70.559676
4022.000000	70.629451
4020.000000	70.695956
4018.000000	70.765270
4016.000000	70.836555
4014.000000	70.905299
4012.000000	70.969664
4010.000000	71.034183
4008.000000	71.103296
4006.000000	71.176715
4004.000000	71.248082
4002.000000	71.317398
4000.000000	71.384451
3998.000000	71.447325
3996.000000	71.507360
3994.000000	71.570037
3992.000000	71.633786
3990.000000	71.700911
3988.000000	71.771089
3986.000000	71.837458
3984.000000	71.897691
3982.000000	71.959595
3980.000000	72.022949
3978.000000	72.080272
3976.000000	72.131940
3974.000000	72.190479
3972.000000	72.256502
3970.000000	72.324978
3968.000000	72.394093
3966.000000	72.455948
3964.000000	72.502880
3962.000000	72.553477
3960.000000	72.618635
3958.000000	72.686878
3956.000000	72.749845
3954.000000	72.800684
3952.000000	72.826195
3950.000000	72.847073
3948.000000	72.903610
3946.000000	72.971212
3944.000000	73.015590
3942.000000	73.094461
3940.000000	73.214965
3938.000000	73.309330
3936.000000	73.334947
3934.000000	73.307794
3932.000000	73.329434
3930.000000	73.445885
3928.000000	73.547450
3926.000000	73.587359
3924.000000	73.639255
3922.000000	73.689277
3920.000000	73.677424
3918.000000	73.695145
3916.000000	73.850311
3914.000000	74.057673
3912.000000	74.190987
3910.000000	74.237536
3908.000000	74.137975
3906.000000	73.862008
3904.000000	73.628539
3902.000000	73.635359
3900.000000	73.871226
3898.000000	74.245303
3896.000000	74.513734
3894.000000	74.467212
3892.000000	74.352045
3890.000000	74.426925
3888.000000	74.405970
3886.000000	74.316721
3884.000000	74.467063
3882.000000	74.639116
3880.000000	74.784200
3878.000000	74.979345
3876.000000	75.015478
3874.000000	74.863521
3872.000000	74.579162
3870.000000	74.474568
3868.000000	74.711077
3866.000000	74.897291
3864.000000	75.023899
3862.000000	75.285585
3860.000000	75.499554
3858.000000	75.186457
3856.000000	74.096409
3854.000000	73.341056
3852.000000	74.012429
3850.000000	75.267624
3848.000000	75.949008
3846.000000	76.029674
3844.000000	75.897176
3842.000000	75.654224
3840.000000	75.206195
3838.000000	74.988001
3836.000000	75.371924
3834.000000	75.878234
3832.000000	76.181806
3830.000000	76.407796
3828.000000	76.543892
3826.000000	76.552711
3824.000000	76.297628
3822.000000	75.979802
3820.000000	75.981873
3818.000000	75.958538
3816.000000	76.028309
3814.000000	76.615758
3812.000000	77.126752
3810.000000	77.032631
3808.000000	76.697460
3806.000000	76.657181
3804.000000	76.550585
3802.000000	76.327411
3800.000000	76.642549
3798.000000	77.169000
3796.000000	77.481468
3794.000000	77.732861
3792.000000	77.907507
3790.000000	77.982567
3788.000000	78.004097
3786.000000	78.011558
3784.000000	78.039134
3782.000000	78.019840
3780.000000	77.994605
3778.000000	78.129278
3776.000000	78.324443
3774.000000	78.362317
3772.000000	78.200141
3770.000000	78.086063
3768.000000	78.175075
3766.000000	78.337937
3764.000000	78.485464
3762.000000	78.490081
3760.000000	78.407921
3758.000000	78.449112
3756.000000	78.340653
3754.000000	77.693050
3752.000000	76.985504
3750.000000	76.997183
3748.000000	77.269699
3746.000000	77.021812
3744.000000	77.193860
3742.000000	78.199341
3740.000000	78.724921
3738.000000	78.440275
3736.000000	78.162745
3734.000000	78.279846
3732.000000	78.687901
3730.000000	79.164781
3728.000000	79.368699
3726.000000	79.388084
3724.000000	79.460627
3722.000000	79.590275
3720.000000	79.761718
3718.000000	79.908935
3716.000000	79.831347
3714.000000	79.419767
3712.000000	79.144376
3710.000000	79.417493
3708.000000	79.926677
3706.000000	80.228922
3704.000000	80.221820
3702.000000	80.183611
3700.000000	80.342603
3698.000000	80.529700
3696.000000	80.581658
3694.000000	80.427496
3692.000000	79.962555
3690.000000	79.439556
3688.000000	79.570166
3686.000000	80.303980
3684.000000	80.803023
3682.000000	80.853555
3680.000000	80.587601
3678.000000	79.938097
3676.000000	79.461658
3674.000000	79.638829
3672.000000	79.770588
3670.000000	79.908549
3668.000000	80.523899
3666.000000	81.098965
3664.000000	81.312385
3662.000000	81.344657
3660.000000	81.228801
3658.000000	80.938451
3656.000000	80.828088
3654.000000	80.849161
3652.000000	80.420096
3650.000000	79.919758
3648.000000	80.147527
3646.000000	80.854991
3644.000000	81.353219
3642.000000	81.519464
3640.000000	81.560375
3638.000000	81.562277
3636.000000	81.512027
3634.000000	81.374256
3632.000000	80.918528
3630.000000	80.332297
3628.000000	80.474116
3626.000000	81.170651
3624.000000	81.511762
3622.000000	81.321545
3620.000000	81.040465
3618.000000	81.085750
3616.000000	81.248006
3614.000000	81.229486
3612.000000	81.121677
3610.000000	81.048500
3608.000000	81.178439
3606.000000	81.471656
3604.000000	81.633841
3602.000000	81.620981
3600.000000	81.582494
3598.000000	81.547622
3596.000000	81.500007
3594.000000	81.512216
3592.000000	81.495606
3590.000000	81.277943
3588.000000	81.100555
3586.000000	81.254274
3584.000000	81.520920
3582.000000	81.640428
3580.000000	81.652118
3578.000000	81.648382
3576.000000	81.647896
3574.000000	81.648226
3572.000000	81.582302
3570.000000	81.348567
3568.000000	81.115058
3566.000000	81.170135
3564.000000	81.390299
3562.000000	81.517737
3560.000000	81.558106
3558.000000	81.583123
3556.000000	81.571673
3554.000000	81.517140
3552.000000	81.486777
3550.000000	81.470975
3548.000000	81.397496
3546.000000	81.342896
3544.000000	81.390264
3542.000000	81.467669
3540.000000	81.489609
3538.000000	81.457955
3536.000000	81.430056
3534.000000	81.423743
3532.000000	81.387668
3530.000000	81.312760
3528.000000	81.244381
3526.000000	81.197087
3524.000000	81.163524
3522.000000	81.161484
3520.000000	81.166681
3518.000000	81.150666
3516.000000	81.121834
3514.000000	81.075202
3512.000000	81.006320
3510.000000	80.943724
3508.000000	80.906209
3506.000000	80.844829
3504.000000	80.754065
3502.000000	80.706698
3500.000000	80.694070
3498.000000	80.654887
3496.000000	80.599651
3494.000000	80.554992
3492.000000	80.506452
3490.000000	80.443257
3488.000000	80.384998
3486.000000	80.342703
3484.000000	80.294506
3482.000000	80.250694
3480.000000	80.240992
3478.000000	80.248298
3476.000000	80.248185
3474.000000	80.250540
3472.000000	80.258694
3470.000000	80.261977
3468.000000	80.271075
3466.000000	80.301839
3464.000000	80.339948
3462.000000	80.375548
3460.000000	80.417335
3458.000000	80.460481
3456.000000	80.496089
3454.000000	80.525191
3452.000000	80.544946
3450.000000	80.542028
3448.000000	80.531711
3446.000000	80.558837
3444.000000	80.614877
3442.000000	80.678096
3440.000000	80.755355
3438.000000	80.842882
3436.000000	80.942037
3434.000000	81.063583
3432.000000	81.203636
3430.000000	81.347487
3428.000000	81.491226
3426.000000	81.628033
3424.000000	81.745135
3422.000000	81.846733
3420.000000	81.956498
3418.000000	82.075151
3416.000000	82.177692
3414.000000	82.259221
3412.000000	82.332255
3410.000000	82.400001
3408.000000	82.461824
3406.000000	82.517817
3404.000000	82.566150
3402.000000	82.609724
3400.000000	82.664858
3398.000000	82.741656
3396.000000	82.824415
3394.000000	82.890905
3392.000000	82.954674
3390.000000	83.038180
3388.000000	83.120181
3386.000000	83.183434
3384.000000	83.242319
3382.000000	83.302898
3380.000000	83.359333
3378.000000	83.410935
3376.000000	83.460727
3374.000000	83.507088
3372.000000	83.543206
3370.000000	83.569368
3368.000000	83.605180
3366.000000	83.657794
3364.000000	83.714937
3362.000000	83.765961
3360.000000	83.811840
3358.000000	83.854768
3356.000000	83.897105
3354.000000	83.940787
3352.000000	83.980641
3350.000000	84.020841
3348.000000	84.068544
3346.000000	84.115619
3344.000000	84.155501
3342.000000	84.192091
3340.000000	84.226581
3338.000000	84.259832
3336.000000	84.302607
3334.000000	84.351411
3332.000000	84.396260
3330.000000	84.435049
3328.000000	84.468781
3326.000000	84.501311
3324.000000	84.540089
3322.000000	84.582579
3320.000000	84.621174
3318.000000	84.655939
3316.000000	84.689601
3314.000000	84.721964
3312.000000	84.751837
3310.000000	84.774874
3308.000000	84.794932
3306.000000	84.821542
3304.000000	84.867157
3302.000000	84.922767
3300.000000	84.966412
3298.000000	84.998994
3296.000000	85.030494
3294.000000	85.059037
3292.000000	85.090564
3290.000000	85.135697
3288.000000	85.183777
3286.000000	85.224127
3284.000000	85.261640
3282.000000	85.298875
3280.000000	85.334538
3278.000000	85.368208
3276.000000	85.400199
3274.000000	85.433271
3272.000000	85.470301
3270.000000	85.516518
3268.000000	85.570287
3266.000000	85.618383
3264.000000	85.662102
3262.000000	85.705970
3260.000000	85.749175
3258.000000	85.790238
3256.000000	85.830491
3254.000000	85.876227
3252.000000	85.929542
3250.000000	85.979700
3248.000000	86.020057
3246.000000	86.060304
3244.000000	86.113945
3242.000000	86.171660
3240.000000	86.224304
3238.000000	86.272612
3236.000000	86.316569
3234.000000	86.357667
3232.000000	86.408373
3230.000000	86.466219
3228.000000	86.521404
3226.000000	86.575837
3224.000000	86.626465
3222.000000	86.669534
3220.000000	86.712964
3218.000000	86.762803
3216.000000	86.812305
3214.000000	86.861072
3212.000000	86.914125
3210.000000	86.968597
3208.000000	87.028655
3206.000000	87.092920
3204.000000	87.159813
3202.000000	87.229883
3200.000000	87.298610
3198.000000	87.366800
3196.000000	87.442812
3194.000000	87.520840
3192.000000	87.595068
3190.000000	87.667696
3188.000000	87.738495
3186.000000	87.806604
3184.000000	87.877788
3182.000000	87.950837
3180.000000	88.019572
3178.000000	88.089087
3176.000000	88.165865
3174.000000	88.241990
3172.000000	88.315441
3170.000000	88.388559
3168.000000	88.463600
3166.000000	88.540085
3164.000000	88.617592
3162.000000	88.694502
3160.000000	88.772907
3158.000000	88.852590
3156.000000	88.929711
3154.000000	88.998914
3152.000000	89.071186
3150.000000	89.155748
3148.000000	89.241802
3146.000000	89.320774
3144.000000	89.395651
3142.000000	89.467164
3140.000000	89.536983
3138.000000	89.608938
3136.000000	89.680192
3134.000000	89.745144
3132.000000	89.813767
3130.000000	89.884065
3128.000000	89.949128
3126.000000	90.010005
3124.000000	90.065021
3122.000000	90.112747
3120.000000	90.160407
3118.000000	90.209405
3116.000000	90.265341
3114.000000	90.333571
3112.000000	90.398540
3110.000000	90.449320
3108.000000	90.502018
3106.000000	90.562984
3104.000000	90.621569
3102.000000	90.677447
3100.000000	90.742019
3098.000000	90.809782
3096.000000	90.876086
3094.000000	90.943418
3092.000000	91.007360
3090.000000	91.066760
3088.000000	91.126322
3086.000000	91.178072
3084.000000	91.222234
3082.000000	91.262624
3080.000000	91.299117
3078.000000	91.339712
3076.000000	91.386699
3074.000000	91.422587
3072.000000	91.441485
3070.000000	91.447225
3068.000000	91.448925
3066.000000	91.463064
3064.000000	91.501702
3062.000000	91.554514
3060.000000	91.608847
3058.000000	91.662002
3056.000000	91.723989
3054.000000	91.791829
3052.000000	91.850698
3050.000000	91.900286
3048.000000	91.950337
3046.000000	91.992308
3044.000000	92.021099
3042.000000	92.045487
3040.000000	92.074242
3038.000000	92.097572
3036.000000	92.105963
3034.000000	92.101599
3032.000000	92.089060
3030.000000	92.060180
3028.000000	91.997498
3026.000000	91.889852
3024.000000	91.759774
3022.000000	91.642864
3020.000000	91.578415
3018.000000	91.604891
3016.000000	91.742933
3014.000000	91.974924
3012.000000	92.260397
3010.000000	92.543999
3008.000000	92.776916
3006.000000	92.939389
3004.000000	93.052465
3002.000000	93.136029
3000.000000	93.195536
2998.000000	93.234683
2996.000000	93.263363
2994.000000	93.282617
2992.000000	93.295286
2990.000000	93.298861
2988.000000	93.285562
2986.000000	93.250785
2984.000000	93.192527
2982.000000	93.103866
2980.000000	92.982051
2978.000000	92.817991
2976.000000	92.592339
2974.000000	92.285781
2972.000000	91.890979
2970.000000	91.408940
2968.000000	90.882916
2966.000000	90.396960
2964.000000	90.040622
2962.000000	89.868249
2960.000000	89.883502
2958.000000	90.026685
2956.000000	90.219615
2954.000000	90.404370
2952.000000	90.547635
2950.000000	90.617541
2948.000000	90.582588
2946.000000	90.419439
2944.000000	90.125546
2942.000000	89.713220
2940.000000	89.219327
2938.000000	88.704357
2936.000000	88.230420
2934.000000	87.809097
2932.000000	87.409223
2930.000000	87.016680
2928.000000	86.687923
2926.000000	86.524752
2924.000000	86.633429
2922.000000	87.054897
2920.000000	87.732830
2918.000000	88.550755
2916.000000	89.402499
2914.000000	90.204372
2912.000000	90.897902
2910.000000	91.453314
2908.000000	91.886655
2906.000000	92.237414
2904.000000	92.541024
2902.000000	92.815348
2900.000000	93.070453
2898.000000	93.309564
2896.000000	93.536223
2894.000000	93.751236
2892.000000	93.956101
2890.000000	94.143602
2888.000000	94.307032
2886.000000	94.436324
2884.000000	94.525722
2882.000000	94.568625
2880.000000	94.565206
2878.000000	94.511531
2876.000000	94.400872
2874.000000	94.221236
2872.000000	93.965694
2870.000000	93.605554
2868.000000	93.117183
2866.000000	92.540221
2864.000000	91.997820
2862.000000	91.642851
2860.000000	91.567283
2858.000000	91.736092
2856.000000	92.041099
2854.000000	92.400081
2852.000000	92.812570
2850.000000	93.319096
2848.000000	93.923524
2846.000000	94.544843
2844.000000	95.089207
2842.000000	95.522046
2840.000000	95.861078
2838.000000	96.131788
2836.000000	96.354964
2834.000000	96.537969
2832.000000	96.693361
2830.000000	96.828628
2828.000000	96.949602
2826.000000	97.059805
2824.000000	97.163761
2822.000000	97.257299
2820.000000	97.342901
2818.000000	97.420753
2816.000000	97.492509
2814.000000	97.555776
2812.000000	97.612823
2810.000000	97.664806
2808.000000	97.715213
2806.000000	97.762448
2804.000000	97.809580
2802.000000	97.854150
2800.000000	97.895882
2798.000000	97.935912
2796.000000	97.978471
2794.000000	98.019985
2792.000000	98.065720
2790.000000	98.121112
2788.000000	98.192737
2786.000000	98.273835
2784.000000	98.357444
2782.000000	98.437391
2780.000000	98.513779
2778.000000	98.582618
2776.000000	98.644429
2774.000000	98.700838
2772.000000	98.757201
2770.000000	98.809204
2768.000000	98.859284
2766.000000	98.907992
2764.000000	98.956392
2762.000000	99.001511
2760.000000	99.046058
2758.000000	99.088742
2756.000000	99.132297
2754.000000	99.174152
2752.000000	99.214814
2750.000000	99.251929
2748.000000	99.287734
2746.000000	99.322259
2744.000000	99.358623
2742.000000	99.393771
2740.000000	99.428711
2738.000000	99.462173
2736.000000	99.496448
2734.000000	99.528827
2732.000000	99.561618
2730.000000	99.594115
2728.000000	99.627749
2726.000000	99.659647
2724.000000	99.691933
2722.000000	99.722747
2720.000000	99.754717
2718.000000	99.785809
2716.000000	99.816047
2714.000000	99.841799
2712.000000	99.866648
2710.000000	99.889539
2708.000000	99.912505
2706.000000	99.937140
2704.000000	99.967876
2702.000000	100.003651
2700.000000	100.046178
2698.000000	100.091881
2696.000000	100.139759
2694.000000	100.184551
2692.000000	100.227543
2690.000000	100.267763
2688.000000	100.308595
2686.000000	100.348491
2684.000000	100.387505
2682.000000	100.423459
2680.000000	100.460035
2678.000000	100.493544
2676.000000	100.526975
2674.000000	100.558016
2672.000000	100.588117
2670.000000	100.617397
2668.000000	100.647534
2666.000000	100.675933
2664.000000	100.704362
2662.000000	100.731046
2660.000000	100.759749
2658.000000	100.789867
2656.000000	100.824535
2654.000000	100.859777
2652.000000	100.898750
2650.000000	100.938280
2648.000000	100.977603
2646.000000	101.014372
2644.000000	101.051702
2642.000000	101.087473
2640.000000	101.123083
2638.000000	101.156095
2636.000000	101.190642
2634.000000	101.223809
2632.000000	101.255735
2630.000000	101.284306
2628.000000	101.312321
2626.000000	101.339225
2624.000000	101.367551
2622.000000	101.393651
2620.000000	101.421835
2618.000000	101.449146
2616.000000	101.474607
2614.000000	101.498322
2612.000000	101.522750
2610.000000	101.543222
2608.000000	101.562513
2606.000000	101.577970
2604.000000	101.593646
2602.000000	101.605738
2600.000000	101.615975
2598.000000	101.624998
2596.000000	101.635634
2594.000000	101.648773
2592.000000	101.670308
2590.000000	101.701050
2588.000000	101.744176
2586.000000	101.794406
2584.000000	101.853070
2582.000000	101.914553
2580.000000	101.976557
2578.000000	102.034306
2576.000000	102.088481
2574.000000	102.135468
2572.000000	102.178303
2570.000000	102.216399
2568.000000	102.253674
2566.000000	102.286621
2564.000000	102.318263
2562.000000	102.348469
2560.000000	102.378798
2558.000000	102.405581
2556.000000	102.433176
2554.000000	102.459243
2552.000000	102.486959
2550.000000	102.512182
2548.000000	102.537454
2546.000000	102.561824
2544.000000	102.587274
2542.000000	102.612742
2540.000000	102.639999
2538.000000	102.664807
2536.000000	102.691721
2534.000000	102.717979
2532.000000	102.744044
2530.000000	102.768585
2528.000000	102.794376
2526.000000	102.817642
2524.000000	102.842075
2522.000000	102.864740
2520.000000	102.888910
2518.000000	102.911695
2516.000000	102.934801
2514.000000	102.956615
2512.000000	102.979526
2510.000000	103.000328
2508.000000	103.021911
2506.000000	103.042812
2504.000000	103.064319
2502.000000	103.083591
2500.000000	103.105821
2498.000000	103.129571
2496.000000	103.157084
2494.000000	103.183260
2492.000000	103.210087
2490.000000	103.234017
2488.000000	103.259100
2486.000000	103.283690
2484.000000	103.310654
2482.000000	103.336191
2480.000000	103.362561
2478.000000	103.385943
2476.000000	103.408638
2474.000000	103.428310
2472.000000	103.447977
2470.000000	103.464994
2468.000000	103.482653
2466.000000	103.497632
2464.000000	103.514406
2462.000000	103.530642
2460.000000	103.547594
2458.000000	103.561362
2456.000000	103.578377
2454.000000	103.594287
2452.000000	103.610129
2450.000000	103.625502
2448.000000	103.643473
2446.000000	103.658066
2444.000000	103.674108
2442.000000	103.689464
2440.000000	103.705440
2438.000000	103.718785
2436.000000	103.733367
2434.000000	103.746119
2432.000000	103.759266
2430.000000	103.769152
2428.000000	103.779662
2426.000000	103.791261
2424.000000	103.808812
2422.000000	103.824248
2420.000000	103.839379
2418.000000	103.851485
2416.000000	103.863805
2414.000000	103.873576
2412.000000	103.884651
2410.000000	103.895221
2408.000000	103.908743
2406.000000	103.920438
2404.000000	103.935361
2402.000000	103.950523
2400.000000	103.967093
2398.000000	103.982304
2396.000000	104.000765
2394.000000	104.017659
2392.000000	104.035212
2390.000000	104.049967
2388.000000	104.062129
2386.000000	104.063898
2384.000000	104.051512
2382.000000	104.009528
2380.000000	103.930792
2378.000000	103.801932
2376.000000	103.620883
2374.000000	103.386860
2372.000000	103.116506
2370.000000	102.829696
2368.000000	102.557258
2366.000000	102.328236
2364.000000	102.178619
2362.000000	102.127730
2360.000000	102.189317
2358.000000	102.361176
2356.000000	102.640808
2354.000000	103.005870
2352.000000	103.414464
2350.000000	103.710310
2348.000000	103.693621
2346.000000	103.427108
2344.000000	103.144303
2342.000000	102.938816
2340.000000	102.821902
2338.000000	102.769410
2336.000000	102.767161
2334.000000	102.802062
2332.000000	102.870588
2330.000000	102.968077
2328.000000	103.092879
2326.000000	103.227622
2324.000000	103.367888
2322.000000	103.505221
2320.000000	103.637058
2318.000000	103.756613
2316.000000	103.865729
2314.000000	103.959288
2312.000000	104.043444
2310.000000	104.112627
2308.000000	104.169874
2306.000000	104.215294
2304.000000	104.254977
2302.000000	104.285479
2300.000000	104.313763
2298.000000	104.336407
2296.000000	104.357107
2294.000000	104.372514
2292.000000	104.388718
2290.000000	104.400970
2288.000000	104.413635
2286.000000	104.423421
2284.000000	104.431778
2282.000000	104.431638
2280.000000	104.429294
2278.000000	104.423059
2276.000000	104.418275
2274.000000	104.412164
2272.000000	104.408644
2270.000000	104.401365
2268.000000	104.396612
2266.000000	104.390340
2264.000000	104.386839
2262.000000	104.384004
2260.000000	104.383883
2258.000000	104.381127
2256.000000	104.383249
2254.000000	104.383782
2252.000000	104.389010
2250.000000	104.393952
2248.000000	104.401937
2246.000000	104.409969
2244.000000	104.421695
2242.000000	104.430665
2240.000000	104.444290
2238.000000	104.457760
2236.000000	104.473329
2234.000000	104.484937
2232.000000	104.499164
2230.000000	104.511775
2228.000000	104.525490
2226.000000	104.534599
2224.000000	104.545699
2222.000000	104.553360
2220.000000	104.562238
2218.000000	104.569267
2216.000000	104.578088
2214.000000	104.582935
2212.000000	104.588348
2210.000000	104.589961
2208.000000	104.596110
2206.000000	104.600679
2204.000000	104.606484
2202.000000	104.608927
2200.000000	104.615024
2198.000000	104.617773
2196.000000	104.621188
2194.000000	104.621994
2192.000000	104.625093
2190.000000	104.623776
2188.000000	104.624019
2186.000000	104.621856
2184.000000	104.623353
2182.000000	104.622123
2180.000000	104.622206
2178.000000	104.619341
2176.000000	104.618792
2174.000000	104.609261
2172.000000	104.585893
2170.000000	104.559738
2168.000000	104.571372
2166.000000	104.593216
2164.000000	104.602833
2162.000000	104.600668
2160.000000	104.598744
2158.000000	104.596563
2156.000000	104.599924
2154.000000	104.598787
2152.000000	104.597055
2150.000000	104.591290
2148.000000	104.591475
2146.000000	104.590837
2144.000000	104.592327
2142.000000	104.589074
2140.000000	104.587010
2138.000000	104.582406
2136.000000	104.581342
2134.000000	104.580026
2132.000000	104.581373
2130.000000	104.578483
2128.000000	104.578050
2126.000000	104.576494
2124.000000	104.577904
2122.000000	104.577741
2120.000000	104.581271
2118.000000	104.583121
2116.000000	104.585721
2114.000000	104.590334
2112.000000	104.602988
2110.000000	104.614008
2108.000000	104.626990
2106.000000	104.638124
2104.000000	104.651863
2102.000000	104.661669
2100.000000	104.673975
2098.000000	104.684679
2096.000000	104.699324
2094.000000	104.709972
2092.000000	104.721821
2090.000000	104.730137
2088.000000	104.749414
2086.000000	104.765966
2084.000000	104.784865
2082.000000	104.797890
2080.000000	104.815760
2078.000000	104.830807
2076.000000	104.849270
2074.000000	104.861690
2072.000000	104.881516
2070.000000	104.898769
2068.000000	104.913093
2066.000000	104.915621
2064.000000	104.939055
2062.000000	104.971929
2060.000000	104.999613
2058.000000	105.021449
2056.000000	105.045263
2054.000000	105.063515
2052.000000	105.086137
2050.000000	105.104804
2048.000000	105.126380
2046.000000	105.142571
2044.000000	105.156199
2042.000000	105.162059
2040.000000	105.184992
2038.000000	105.208331
2036.000000	105.224835
2034.000000	105.232227
2032.000000	105.233727
2030.000000	105.215394
2028.000000	105.225329
2026.000000	105.259288
2024.000000	105.282372
2022.000000	105.289384
2020.000000	105.283746
2018.000000	105.264484
2016.000000	105.290890
2014.000000	105.341388
2012.000000	105.373643
2010.000000	105.387208
2008.000000	105.400937
2006.000000	105.413824
2004.000000	105.428168
2002.000000	105.432605
2000.000000	105.436202
1998.000000	105.438951
1996.000000	105.437599
1994.000000	105.379756
1992.000000	105.330116
1990.000000	105.369050
1988.000000	105.413391
1986.000000	105.429698
1984.000000	105.433817
1982.000000	105.422277
1980.000000	105.410968
1978.000000	105.396799
1976.000000	105.384861
1974.000000	105.368702
1972.000000	105.350746
1970.000000	105.301545
1968.000000	105.227169
1966.000000	105.212341
1964.000000	105.235165
1962.000000	105.183560
1960.000000	105.063489
1958.000000	105.031736
1956.000000	105.110894
1954.000000	105.138244
1952.000000	105.123910
1950.000000	105.090304
1948.000000	105.061204
1946.000000	104.997729
1944.000000	104.874096
1942.000000	104.828915
1940.000000	104.933048
1938.000000	104.969933
1936.000000	104.950883
1934.000000	104.917279
1932.000000	104.895026
1930.000000	104.867650
1928.000000	104.839566
1926.000000	104.768550
1924.000000	104.647769
1922.000000	104.583062
1920.000000	104.461814
1918.000000	104.303203
1916.000000	104.443777
1914.000000	104.545356
1912.000000	104.481865
1910.000000	104.376278
1908.000000	104.343837
1906.000000	104.328223
1904.000000	104.294067
1902.000000	104.240761
1900.000000	104.199279
1898.000000	104.126433
1896.000000	104.043539
1894.000000	104.007933
1892.000000	103.944190
1890.000000	103.803322
1888.000000	103.861336
1886.000000	103.949354
1884.000000	103.955830
1882.000000	103.939766
1880.000000	103.924314
1878.000000	103.895024
1876.000000	103.878607
1874.000000	103.835194
1872.000000	103.648369
1870.000000	103.267780
1868.000000	103.233371
1866.000000	103.512416
1864.000000	103.660353
1862.000000	103.647877
1860.000000	103.614571
1858.000000	103.582234
1856.000000	103.565995
1854.000000	103.529152
1852.000000	103.491028
1850.000000	103.399409
1848.000000	103.210246
1846.000000	102.674908
1844.000000	102.354835
1842.000000	102.829646
1840.000000	103.153803
1838.000000	103.102041
1836.000000	103.052129
1834.000000	102.975480
1832.000000	102.651863
1830.000000	102.324691
1828.000000	102.411998
1826.000000	102.382733
1824.000000	102.417583
1822.000000	102.582269
1820.000000	102.576629
1818.000000	102.480224
1816.000000	102.423563
1814.000000	102.322699
1812.000000	102.122113
1810.000000	102.004671
1808.000000	102.022013
1806.000000	101.971316
1804.000000	101.770072
1802.000000	101.444062
1800.000000	101.298956
1798.000000	101.342569
1796.000000	101.205444
1794.000000	100.563308
1792.000000	100.220781
1790.000000	100.654678
1788.000000	100.900877
1786.000000	100.666936
1784.000000	100.519486
1782.000000	100.435596
1780.000000	100.335723
1778.000000	100.301326
1776.000000	99.972152
1774.000000	99.047918
1772.000000	98.596076
1770.000000	99.056362
1768.000000	99.330612
1766.000000	99.606400
1764.000000	99.441113
1762.000000	99.020634
1760.000000	99.092472
1758.000000	99.028942
1756.000000	98.898399
1754.000000	98.676447
1752.000000	97.877976
1750.000000	97.635098
1748.000000	97.925547
1746.000000	98.048543
1744.000000	97.913292
1742.000000	97.532990
1740.000000	97.159160
1738.000000	97.146525
1736.000000	96.134814
1734.000000	95.098881
1732.000000	96.116405
1730.000000	97.085371
1728.000000	97.340190
1726.000000	97.350066
1724.000000	97.244929
1722.000000	97.050926
1720.000000	96.069077
1718.000000	94.706347
1716.000000	94.985647
1714.000000	96.024783
1712.000000	96.556541
1710.000000	96.518757
1708.000000	96.152300
1706.000000	95.693853
1704.000000	95.451357
1702.000000	94.171273
1700.000000	93.223278
1698.000000	93.595632
1696.000000	93.513483
1694.000000	94.729937
1692.000000	95.798842
1690.000000	95.733983
1688.000000	95.203299
1686.000000	93.464358
1684.000000	92.808016
1682.000000	94.387721
1680.000000	95.307128
1678.000000	95.121300
1676.000000	94.381366
1674.000000	94.393715
1672.000000	94.478707
1670.000000	94.024775
1668.000000	94.329974
1666.000000	94.772970
1664.000000	94.413396
1662.000000	94.240681
1660.000000	94.554188
1658.000000	94.465072
1656.000000	93.022429
1654.000000	90.328185
1652.000000	90.554060
1650.000000	92.708232
1648.000000	92.578946
1646.000000	92.209378
1644.000000	93.049652
1642.000000	93.547378
1640.000000	93.295462
1638.000000	92.310743
1636.000000	91.160112
1634.000000	91.710886
1632.000000	92.603036
1630.000000	92.450060
1628.000000	92.007740
1626.000000	91.574177
1624.000000	90.914119
1622.000000	90.635293
1620.000000	90.284415
1618.000000	88.937773
1616.000000	88.386877
1614.000000	88.941149
1612.000000	88.686861
1610.000000	88.044555
1608.000000	87.720947
1606.000000	87.776733
1604.000000	87.975984
1602.000000	88.225125
1600.000000	88.475403
1598.000000	88.682562
1596.000000	88.814286
1594.000000	88.927784
1592.000000	89.005646
1590.000000	89.016707
1588.000000	88.985523
1586.000000	88.921348
1584.000000	88.844729
1582.000000	88.789080
1580.000000	88.588156
1578.000000	87.524636
1576.000000	86.777736
1574.000000	87.765243
1572.000000	88.087507
1570.000000	87.543374
1568.000000	87.656185
1566.000000	87.797466
1564.000000	87.467913
1562.000000	86.045262
1560.000000	83.680000
1558.000000	83.728312
1556.000000	85.432860
1554.000000	86.354786
1552.000000	87.046006
1550.000000	87.420445
1548.000000	87.611989
1546.000000	87.371036
1544.000000	86.788927
1542.000000	85.795911
1540.000000	85.240443
1538.000000	86.753686
1536.000000	88.247745
1534.000000	88.242749
1532.000000	88.617967
1530.000000	89.008221
1528.000000	88.759172
1526.000000	88.378037
1524.000000	87.910479
1522.000000	87.040243
1520.000000	87.225842
1518.000000	87.744698
1516.000000	87.804389
1514.000000	87.867070
1512.000000	87.655591
1510.000000	86.979160
1508.000000	85.247916
1506.000000	84.455297
1504.000000	85.343866
1502.000000	84.902680
1500.000000	82.347890
1498.000000	78.847180
1496.000000	76.328113
1494.000000	76.172665
1492.000000	77.253554
1490.000000	78.870159
1488.000000	80.879299
1486.000000	82.624448
1484.000000	83.771003
1482.000000	84.280906
1480.000000	84.514614
1478.000000	84.362099
1476.000000	83.839888
1474.000000	83.071365
1472.000000	82.898984
1470.000000	83.477968
1468.000000	83.458108
1466.000000	82.724297
1464.000000	82.331688
1462.000000	82.187175
1460.000000	81.028100
1458.000000	78.890633
1456.000000	77.920410
1454.000000	78.111332
1452.000000	77.834874
1450.000000	77.879675
1448.000000	78.653563
1446.000000	79.701094
1444.000000	80.254688
1442.000000	80.383166
1440.000000	80.201765
1438.000000	79.533460
1436.000000	79.440298
1434.000000	80.177316
1432.000000	80.340731
1430.000000	80.244714
1428.000000	80.316484
1426.000000	80.341615
1424.000000	80.193995
1422.000000	79.857356
1420.000000	79.079635
1418.000000	79.086439
1416.000000	79.537146
1414.000000	79.523048
1412.000000	79.174300
1410.000000	78.654277
1408.000000	77.887370
1406.000000	77.012565
1404.000000	76.541351
1402.000000	76.577270
1400.000000	76.708483
1398.000000	77.098314
1396.000000	77.434531
1394.000000	77.775075
1392.000000	78.248946
1390.000000	78.254597
1388.000000	77.823022
1386.000000	77.599775
1384.000000	77.619531
1382.000000	77.744540
1380.000000	77.832921
1378.000000	77.761759
1376.000000	77.549321
1374.000000	77.378549
1372.000000	77.405196
1370.000000	77.345529
1368.000000	77.190689
1366.000000	77.023939
1364.000000	76.718608
1362.000000	76.504606
1360.000000	76.481354
1358.000000	76.405256
1356.000000	76.215372
1354.000000	76.011182
1352.000000	75.811802
1350.000000	75.595088
1348.000000	75.376243
1346.000000	75.152878
1344.000000	74.901668
1342.000000	74.591583
1340.000000	74.285890
1338.000000	74.157693
1336.000000	74.129499
1334.000000	74.063357
1332.000000	73.918198
1330.000000	73.727105
1328.000000	73.505814
1326.000000	73.263942
1324.000000	72.998276
1322.000000	72.708507
1320.000000	72.386035
1318.000000	72.082461
1316.000000	71.794365
1314.000000	71.486862
1312.000000	71.179476
1310.000000	70.877374
1308.000000	70.552465
1306.000000	70.222725
1304.000000	69.883775
1302.000000	69.539993
1300.000000	69.194011
1298.000000	68.848898
1296.000000	68.492952
1294.000000	68.129556
1292.000000	67.745939
1290.000000	67.347638
1288.000000	66.942748
1286.000000	66.546651
1284.000000	66.137141
1282.000000	65.706513
1280.000000	65.249141
1278.000000	64.761822
1276.000000	64.221354
1274.000000	63.605047
1272.000000	62.873026
1270.000000	61.987775
1268.000000	60.883482
1266.000000	59.565205
1264.000000	58.193339
1262.000000	57.089310
1260.000000	56.535601
1258.000000	56.545099
1256.000000	56.838442
1254.000000	57.085160
1252.000000	57.083572
1250.000000	56.840794
1248.000000	56.445486
1246.000000	55.973553
1244.000000	55.463288
1242.000000	54.948374
1240.000000	54.438383
1238.000000	53.946055
1236.000000	53.467680
1234.000000	53.005201
1232.000000	52.550882
1230.000000	52.103437
1228.000000	51.654507
1226.000000	51.202326
1224.000000	50.743059
1222.000000	50.273514
1220.000000	49.780730
1218.000000	49.268482
1216.000000	48.745087
1214.000000	48.230629
1212.000000	47.737977
1210.000000	47.284488
1208.000000	46.865628
1206.000000	46.467430
1204.000000	46.070602
1202.000000	45.672220
1200.000000	45.275944
1198.000000	44.888714
1196.000000	44.496868
1194.000000	44.091869
1192.000000	43.671863
1190.000000	43.241992
1188.000000	42.797991
1186.000000	42.326107
1184.000000	41.743830
1182.000000	41.017969
1180.000000	40.451815
1178.000000	40.202709
1176.000000	39.969368
1174.000000	39.612270
1172.000000	39.184656
1170.000000	38.735477
1168.000000	38.270306
1166.000000	37.796896
1164.000000	37.324226
1162.000000	36.862660
1160.000000	36.406821
1158.000000	35.971938
1156.000000	35.551342
1154.000000	35.133028
1152.000000	34.707172
1150.000000	34.285278
1148.000000	33.853975
1146.000000	33.415486
1144.000000	32.987046
1142.000000	32.608397
1140.000000	32.294826
1138.000000	31.983517
1136.000000	31.624808
1134.000000	31.232287
1132.000000	30.815830
1130.000000	30.390375
1128.000000	29.967782
1126.000000	29.548798
1124.000000	29.120439
1122.000000	28.682855
1120.000000	28.234282
1118.000000	27.777513
1116.000000	27.311593
1114.000000	26.843406
1112.000000	26.374001
1110.000000	25.910751
1108.000000	25.457818
1106.000000	25.023090
1104.000000	24.604074
1102.000000	24.193861
1100.000000	23.781593
1098.000000	23.374781
1096.000000	22.978857
1094.000000	22.597191
1092.000000	22.227003
1090.000000	21.872148
1088.000000	21.529528
1086.000000	21.193726
1084.000000	20.848017
1082.000000	20.491319
1080.000000	20.152103
1078.000000	19.847348
1076.000000	19.572038
1074.000000	19.340224
1072.000000	19.124653
1070.000000	18.900253
1068.000000	18.668315
1066.000000	18.437261
1064.000000	18.206667
1062.000000	17.974438
1060.000000	17.726180
1058.000000	17.438956
1056.000000	17.051463
1054.000000	16.539373
1052.000000	16.031623
1050.000000	15.732657
1048.000000	15.699110
1046.000000	15.781126
1044.000000	15.781714
1042.000000	15.664975
1040.000000	15.480560
1038.000000	15.268657
1036.000000	15.042585
1034.000000	14.805469
1032.000000	14.557658
1030.000000	14.299660
1028.000000	14.033172
1026.000000	13.764563
1024.000000	13.493828
1022.000000	13.226312
1020.000000	12.970840
1018.000000	12.737091
1016.000000	12.523635
1014.000000	12.333971
1012.000000	12.163231
1010.000000	12.001719
1008.000000	11.837201
1006.000000	11.660393
1004.000000	11.465188
1002.000000	11.252968
1000.000000	11.022978
