PE IR       SUBTECH     SPECTRUM    ASCII       PEDS        4.00        
   -1
TE110A_060_80K_AFTER_120K_BG.ASC
20/05/14
14:30:31.00
20/05/14
14:30:31.00
Administrator
TE110A.Thursday, May 14 2020, 008.
1000.000000
#HDR
-1
-1
#GR
cm-1
EGY
1.0
0.0
6000.000000
-2.000000
2501
8
105.637915
11.033014
#DATA
6000.000000	16.784422
5998.000000	16.819072
5996.000000	16.853449
5994.000000	16.886795
5992.000000	16.918818
5990.000000	16.950591
5988.000000	16.983042
5986.000000	17.017098
5984.000000	17.051285
5982.000000	17.085111
5980.000000	17.118184
5978.000000	17.151455
5976.000000	17.184937
5974.000000	17.219800
5972.000000	17.254573
5970.000000	17.288619
5968.000000	17.322167
5966.000000	17.355590
5964.000000	17.389330
5962.000000	17.423867
5960.000000	17.458127
5958.000000	17.492550
5956.000000	17.527595
5954.000000	17.563406
5952.000000	17.599023
5950.000000	17.633302
5948.000000	17.666424
5946.000000	17.700258
5944.000000	17.735387
5942.000000	17.769665
5940.000000	17.803127
5938.000000	17.837456
5936.000000	17.871705
5934.000000	17.906139
5932.000000	17.939598
5930.000000	17.973606
5928.000000	18.008169
5926.000000	18.042576
5924.000000	18.077537
5922.000000	18.112906
5920.000000	18.149063
5918.000000	18.184641
5916.000000	18.221034
5914.000000	18.258437
5912.000000	18.295565
5910.000000	18.332212
5908.000000	18.367720
5906.000000	18.404289
5904.000000	18.441745
5902.000000	18.479909
5900.000000	18.518003
5898.000000	18.554933
5896.000000	18.590744
5894.000000	18.627665
5892.000000	18.664852
5890.000000	18.702364
5888.000000	18.737950
5886.000000	18.772451
5884.000000	18.807994
5882.000000	18.845388
5880.000000	18.882444
5878.000000	18.918662
5876.000000	18.954371
5874.000000	18.991560
5872.000000	19.029031
5870.000000	19.065899
5868.000000	19.102189
5866.000000	19.139536
5864.000000	19.177203
5862.000000	19.214302
5860.000000	19.251608
5858.000000	19.289512
5856.000000	19.328281
5854.000000	19.366817
5852.000000	19.405425
5850.000000	19.445279
5848.000000	19.486618
5846.000000	19.527488
5844.000000	19.566736
5842.000000	19.605782
5840.000000	19.646859
5838.000000	19.689756
5836.000000	19.732497
5834.000000	19.774376
5832.000000	19.815568
5830.000000	19.856918
5828.000000	19.898630
5826.000000	19.940892
5824.000000	19.982011
5822.000000	20.022615
5820.000000	20.063473
5818.000000	20.105076
5816.000000	20.147254
5814.000000	20.188299
5812.000000	20.228442
5810.000000	20.268863
5808.000000	20.309513
5806.000000	20.351229
5804.000000	20.392216
5802.000000	20.433160
5800.000000	20.474405
5798.000000	20.515908
5796.000000	20.556864
5794.000000	20.597286
5792.000000	20.637965
5790.000000	20.679427
5788.000000	20.721393
5786.000000	20.763601
5784.000000	20.805059
5782.000000	20.846711
5780.000000	20.888118
5778.000000	20.930065
5776.000000	20.972410
5774.000000	21.015195
5772.000000	21.057692
5770.000000	21.099823
5768.000000	21.142207
5766.000000	21.184697
5764.000000	21.226603
5762.000000	21.268836
5760.000000	21.311397
5758.000000	21.355669
5756.000000	21.399068
5754.000000	21.441807
5752.000000	21.483152
5750.000000	21.523775
5748.000000	21.563933
5746.000000	21.604869
5744.000000	21.646691
5742.000000	21.689500
5740.000000	21.730821
5738.000000	21.771193
5736.000000	21.811789
5734.000000	21.852166
5732.000000	21.892141
5730.000000	21.931905
5728.000000	21.973013
5726.000000	22.015759
5724.000000	22.058118
5722.000000	22.099359
5720.000000	22.140516
5718.000000	22.183281
5716.000000	22.227449
5714.000000	22.272102
5712.000000	22.316259
5710.000000	22.360511
5708.000000	22.404739
5706.000000	22.449075
5704.000000	22.493233
5702.000000	22.537097
5700.000000	22.580628
5698.000000	22.625460
5696.000000	22.671853
5694.000000	22.718488
5692.000000	22.763894
5690.000000	22.808721
5688.000000	22.854130
5686.000000	22.900440
5684.000000	22.946172
5682.000000	22.992023
5680.000000	23.038248
5678.000000	23.084554
5676.000000	23.130333
5674.000000	23.176271
5672.000000	23.222338
5670.000000	23.267563
5668.000000	23.312318
5666.000000	23.357337
5664.000000	23.402771
5662.000000	23.448718
5660.000000	23.494820
5658.000000	23.541361
5656.000000	23.587793
5654.000000	23.633357
5652.000000	23.678502
5650.000000	23.723966
5648.000000	23.770264
5646.000000	23.816681
5644.000000	23.862494
5642.000000	23.908278
5640.000000	23.953398
5638.000000	23.998867
5636.000000	24.044921
5634.000000	24.091732
5632.000000	24.138259
5630.000000	24.183539
5628.000000	24.229369
5626.000000	24.274878
5624.000000	24.319289
5622.000000	24.364251
5620.000000	24.409940
5618.000000	24.456781
5616.000000	24.503040
5614.000000	24.549188
5612.000000	24.595317
5610.000000	24.641648
5608.000000	24.688054
5606.000000	24.734084
5604.000000	24.779620
5602.000000	24.825108
5600.000000	24.871666
5598.000000	24.918505
5596.000000	24.963111
5594.000000	25.008084
5592.000000	25.054565
5590.000000	25.103228
5588.000000	25.151636
5586.000000	25.198600
5584.000000	25.245246
5582.000000	25.292009
5580.000000	25.339581
5578.000000	25.388259
5576.000000	25.436058
5574.000000	25.484047
5572.000000	25.531872
5570.000000	25.580101
5568.000000	25.627907
5566.000000	25.675664
5564.000000	25.723398
5562.000000	25.772102
5560.000000	25.820653
5558.000000	25.868454
5556.000000	25.915147
5554.000000	25.962039
5552.000000	26.010542
5550.000000	26.059894
5548.000000	26.108876
5546.000000	26.156806
5544.000000	26.203209
5542.000000	26.249763
5540.000000	26.296932
5538.000000	26.344490
5536.000000	26.392072
5534.000000	26.441214
5532.000000	26.490947
5530.000000	26.539056
5528.000000	26.585383
5526.000000	26.632141
5524.000000	26.679167
5522.000000	26.726140
5520.000000	26.772148
5518.000000	26.819773
5516.000000	26.868875
5514.000000	26.918553
5512.000000	26.965751
5510.000000	27.009984
5508.000000	27.054786
5506.000000	27.103546
5504.000000	27.154566
5502.000000	27.204517
5500.000000	27.253321
5498.000000	27.299014
5496.000000	27.339746
5494.000000	27.380379
5492.000000	27.425747
5490.000000	27.478089
5488.000000	27.533928
5486.000000	27.591537
5484.000000	27.647718
5482.000000	27.699658
5480.000000	27.742431
5478.000000	27.777333
5476.000000	27.817731
5474.000000	27.871155
5472.000000	27.930402
5470.000000	27.983043
5468.000000	28.030000
5466.000000	28.077102
5464.000000	28.122740
5462.000000	28.169558
5460.000000	28.221355
5458.000000	28.278253
5456.000000	28.335298
5454.000000	28.386838
5452.000000	28.430653
5450.000000	28.467394
5448.000000	28.503465
5446.000000	28.545127
5444.000000	28.592629
5442.000000	28.649118
5440.000000	28.706677
5438.000000	28.756435
5436.000000	28.801729
5434.000000	28.847165
5432.000000	28.892223
5430.000000	28.937688
5428.000000	28.992433
5426.000000	29.059291
5424.000000	29.124872
5422.000000	29.182335
5420.000000	29.232415
5418.000000	29.266494
5416.000000	29.288455
5414.000000	29.316845
5412.000000	29.365351
5410.000000	29.432532
5408.000000	29.500883
5406.000000	29.563687
5404.000000	29.619821
5402.000000	29.671765
5400.000000	29.718095
5398.000000	29.754108
5396.000000	29.787221
5394.000000	29.835196
5392.000000	29.899183
5390.000000	29.961244
5388.000000	30.007528
5386.000000	30.052941
5384.000000	30.109843
5382.000000	30.167796
5380.000000	30.208311
5378.000000	30.242987
5376.000000	30.292027
5374.000000	30.360125
5372.000000	30.429655
5370.000000	30.488857
5368.000000	30.537904
5366.000000	30.583751
5364.000000	30.632228
5362.000000	30.686508
5360.000000	30.741392
5358.000000	30.785194
5356.000000	30.816545
5354.000000	30.853508
5352.000000	30.906000
5350.000000	30.962779
5348.000000	31.001607
5346.000000	31.036428
5344.000000	31.085205
5342.000000	31.138696
5340.000000	31.186100
5338.000000	31.238137
5336.000000	31.304762
5334.000000	31.373030
5332.000000	31.427579
5330.000000	31.473274
5328.000000	31.523186
5326.000000	31.582381
5324.000000	31.647623
5322.000000	31.707176
5320.000000	31.758813
5318.000000	31.807851
5316.000000	31.857397
5314.000000	31.908704
5312.000000	31.956370
5310.000000	31.999221
5308.000000	32.044565
5306.000000	32.099161
5304.000000	32.158800
5302.000000	32.215029
5300.000000	32.267439
5298.000000	32.320446
5296.000000	32.372882
5294.000000	32.417597
5292.000000	32.457746
5290.000000	32.504875
5288.000000	32.560298
5286.000000	32.617999
5284.000000	32.672662
5282.000000	32.729406
5280.000000	32.787264
5278.000000	32.844663
5276.000000	32.899864
5274.000000	32.951492
5272.000000	32.998657
5270.000000	33.043258
5268.000000	33.081342
5266.000000	33.115685
5264.000000	33.158864
5262.000000	33.221056
5260.000000	33.289831
5258.000000	33.344481
5256.000000	33.391565
5254.000000	33.443934
5252.000000	33.494935
5250.000000	33.536247
5248.000000	33.577250
5246.000000	33.632339
5244.000000	33.699462
5242.000000	33.768240
5240.000000	33.833144
5238.000000	33.888798
5236.000000	33.936697
5234.000000	33.981688
5232.000000	34.029622
5230.000000	34.077468
5228.000000	34.119683
5226.000000	34.164975
5224.000000	34.222383
5222.000000	34.286493
5220.000000	34.344406
5218.000000	34.399091
5216.000000	34.456237
5214.000000	34.511524
5212.000000	34.554193
5210.000000	34.584082
5208.000000	34.618025
5206.000000	34.675963
5204.000000	34.752193
5202.000000	34.824216
5200.000000	34.878605
5198.000000	34.928109
5196.000000	34.983377
5194.000000	35.043268
5192.000000	35.099699
5190.000000	35.151509
5188.000000	35.200497
5186.000000	35.251917
5184.000000	35.308160
5182.000000	35.367781
5180.000000	35.426221
5178.000000	35.482839
5176.000000	35.537977
5174.000000	35.590959
5172.000000	35.644954
5170.000000	35.701335
5168.000000	35.756100
5166.000000	35.807899
5164.000000	35.860660
5162.000000	35.916683
5160.000000	35.971873
5158.000000	36.025267
5156.000000	36.079969
5154.000000	36.137706
5152.000000	36.195469
5150.000000	36.251647
5148.000000	36.306501
5146.000000	36.359926
5144.000000	36.411500
5142.000000	36.464195
5140.000000	36.519886
5138.000000	36.576293
5136.000000	36.629988
5134.000000	36.683203
5132.000000	36.738039
5130.000000	36.795036
5128.000000	36.850718
5126.000000	36.904857
5124.000000	36.958050
5122.000000	37.011583
5120.000000	37.065206
5118.000000	37.119730
5116.000000	37.175369
5114.000000	37.230572
5112.000000	37.284569
5110.000000	37.339870
5108.000000	37.396150
5106.000000	37.452228
5104.000000	37.506935
5102.000000	37.562813
5100.000000	37.618660
5098.000000	37.673855
5096.000000	37.729349
5094.000000	37.786815
5092.000000	37.845137
5090.000000	37.902859
5088.000000	37.959747
5086.000000	38.015730
5084.000000	38.071205
5082.000000	38.128046
5080.000000	38.186535
5078.000000	38.244896
5076.000000	38.300852
5074.000000	38.355710
5072.000000	38.411836
5070.000000	38.470175
5068.000000	38.527616
5066.000000	38.584079
5064.000000	38.640295
5062.000000	38.697171
5060.000000	38.753592
5058.000000	38.810068
5056.000000	38.867018
5054.000000	38.924228
5052.000000	38.980770
5050.000000	39.036980
5048.000000	39.092784
5046.000000	39.148886
5044.000000	39.204869
5042.000000	39.261282
5040.000000	39.317304
5038.000000	39.372829
5036.000000	39.428355
5034.000000	39.484421
5032.000000	39.540507
5030.000000	39.596838
5028.000000	39.652936
5026.000000	39.709235
5024.000000	39.765519
5022.000000	39.822839
5020.000000	39.879889
5018.000000	39.936904
5016.000000	39.993056
5014.000000	40.049255
5012.000000	40.105177
5010.000000	40.161969
5008.000000	40.219240
5006.000000	40.277421
5004.000000	40.335102
5002.000000	40.392114
5000.000000	40.449385
4998.000000	40.508541
4996.000000	40.568171
4994.000000	40.626886
4992.000000	40.684362
4990.000000	40.742247
4988.000000	40.801115
4986.000000	40.860492
4984.000000	40.918819
4982.000000	40.977175
4980.000000	41.035481
4978.000000	41.094292
4976.000000	41.152518
4974.000000	41.210939
4972.000000	41.268453
4970.000000	41.325752
4968.000000	41.383481
4966.000000	41.442288
4964.000000	41.500322
4962.000000	41.557536
4960.000000	41.615180
4958.000000	41.673891
4956.000000	41.732251
4954.000000	41.789857
4952.000000	41.845683
4950.000000	41.900972
4948.000000	41.957143
4946.000000	42.015910
4944.000000	42.074489
4942.000000	42.131957
4940.000000	42.188437
4938.000000	42.245345
4936.000000	42.302176
4934.000000	42.358426
4932.000000	42.414899
4930.000000	42.472588
4928.000000	42.530236
4926.000000	42.586684
4924.000000	42.642419
4922.000000	42.699460
4920.000000	42.756821
4918.000000	42.814732
4916.000000	42.873770
4914.000000	42.933659
4912.000000	42.991566
4910.000000	43.048705
4908.000000	43.107055
4906.000000	43.166617
4904.000000	43.224781
4902.000000	43.283308
4900.000000	43.343072
4898.000000	43.403931
4896.000000	43.463586
4894.000000	43.522432
4892.000000	43.580890
4890.000000	43.639729
4888.000000	43.699065
4886.000000	43.759339
4884.000000	43.819274
4882.000000	43.878951
4880.000000	43.939078
4878.000000	43.999395
4876.000000	44.057897
4874.000000	44.116114
4872.000000	44.174402
4870.000000	44.233329
4868.000000	44.292665
4866.000000	44.352625
4864.000000	44.411658
4862.000000	44.470426
4860.000000	44.529012
4858.000000	44.587325
4856.000000	44.644539
4854.000000	44.702048
4852.000000	44.759955
4850.000000	44.819011
4848.000000	44.877145
4846.000000	44.934607
4844.000000	44.991164
4842.000000	45.048881
4840.000000	45.107323
4838.000000	45.165851
4836.000000	45.223263
4834.000000	45.280730
4832.000000	45.339109
4830.000000	45.398121
4828.000000	45.456165
4826.000000	45.513934
4824.000000	45.571507
4822.000000	45.630137
4820.000000	45.688561
4818.000000	45.747451
4816.000000	45.805733
4814.000000	45.864629
4812.000000	45.923764
4810.000000	45.984154
4808.000000	46.044501
4806.000000	46.105247
4804.000000	46.165555
4802.000000	46.225474
4800.000000	46.284625
4798.000000	46.345487
4796.000000	46.407133
4794.000000	46.468106
4792.000000	46.528186
4790.000000	46.590030
4788.000000	46.651596
4786.000000	46.711528
4784.000000	46.770159
4782.000000	46.830069
4780.000000	46.890551
4778.000000	46.951509
4776.000000	47.011951
4774.000000	47.072415
4772.000000	47.132294
4770.000000	47.192058
4768.000000	47.250806
4766.000000	47.309686
4764.000000	47.368743
4762.000000	47.428925
4760.000000	47.487970
4758.000000	47.546422
4756.000000	47.605365
4754.000000	47.665226
4752.000000	47.723138
4750.000000	47.780828
4748.000000	47.839349
4746.000000	47.898771
4744.000000	47.957253
4742.000000	48.015174
4740.000000	48.072306
4738.000000	48.130162
4736.000000	48.188463
4734.000000	48.247893
4732.000000	48.307262
4730.000000	48.366250
4728.000000	48.424028
4726.000000	48.482508
4724.000000	48.541944
4722.000000	48.602822
4720.000000	48.663065
4718.000000	48.723070
4716.000000	48.783959
4714.000000	48.846766
4712.000000	48.909487
4710.000000	48.971733
4708.000000	49.033773
4706.000000	49.097234
4704.000000	49.160375
4702.000000	49.224081
4700.000000	49.287854
4698.000000	49.351357
4696.000000	49.413064
4694.000000	49.474474
4692.000000	49.535484
4690.000000	49.597394
4688.000000	49.659684
4686.000000	49.721156
4684.000000	49.780813
4682.000000	49.841567
4680.000000	49.904077
4678.000000	49.967172
4676.000000	50.029058
4674.000000	50.091044
4672.000000	50.153145
4670.000000	50.214836
4668.000000	50.275454
4666.000000	50.336967
4664.000000	50.399230
4662.000000	50.461326
4660.000000	50.522495
4658.000000	50.584018
4656.000000	50.644926
4654.000000	50.705898
4652.000000	50.766211
4650.000000	50.826952
4648.000000	50.887957
4646.000000	50.949878
4644.000000	51.011135
4642.000000	51.072835
4640.000000	51.133773
4638.000000	51.194435
4636.000000	51.254516
4634.000000	51.316106
4632.000000	51.377875
4630.000000	51.439018
4628.000000	51.499525
4626.000000	51.561580
4624.000000	51.623872
4622.000000	51.686518
4620.000000	51.749097
4618.000000	51.812227
4616.000000	51.876106
4614.000000	51.940478
4612.000000	52.002802
4610.000000	52.066129
4608.000000	52.131091
4606.000000	52.196417
4604.000000	52.261332
4602.000000	52.327591
4600.000000	52.393365
4598.000000	52.459406
4596.000000	52.524170
4594.000000	52.588080
4592.000000	52.651972
4590.000000	52.717596
4588.000000	52.783201
4586.000000	52.849102
4584.000000	52.913512
4582.000000	52.976274
4580.000000	53.038496
4578.000000	53.103459
4576.000000	53.168845
4574.000000	53.233045
4572.000000	53.296205
4570.000000	53.360092
4568.000000	53.423706
4566.000000	53.487716
4564.000000	53.551180
4562.000000	53.615285
4560.000000	53.678978
4558.000000	53.742151
4556.000000	53.804685
4554.000000	53.867713
4552.000000	53.929299
4550.000000	53.990813
4548.000000	54.054172
4546.000000	54.119441
4544.000000	54.182834
4542.000000	54.244831
4540.000000	54.307208
4538.000000	54.370280
4536.000000	54.431670
4534.000000	54.494068
4532.000000	54.557729
4530.000000	54.621039
4528.000000	54.683856
4526.000000	54.748920
4524.000000	54.813971
4522.000000	54.878674
4520.000000	54.943193
4518.000000	55.008050
4516.000000	55.071125
4514.000000	55.134065
4512.000000	55.198477
4510.000000	55.265317
4508.000000	55.331571
4506.000000	55.397007
4504.000000	55.461582
4502.000000	55.527102
4500.000000	55.592575
4498.000000	55.659474
4496.000000	55.726709
4494.000000	55.792640
4492.000000	55.856666
4490.000000	55.921782
4488.000000	55.986879
4486.000000	56.052194
4484.000000	56.117463
4482.000000	56.183173
4480.000000	56.247740
4478.000000	56.312305
4476.000000	56.375903
4474.000000	56.438988
4472.000000	56.501666
4470.000000	56.565299
4468.000000	56.628556
4466.000000	56.691578
4464.000000	56.753481
4462.000000	56.815888
4460.000000	56.879047
4458.000000	56.941742
4456.000000	57.002527
4454.000000	57.064252
4452.000000	57.127024
4450.000000	57.189880
4448.000000	57.252012
4446.000000	57.314400
4444.000000	57.376853
4442.000000	57.440052
4440.000000	57.502255
4438.000000	57.564819
4436.000000	57.627811
4434.000000	57.691035
4432.000000	57.752954
4430.000000	57.816037
4428.000000	57.880259
4426.000000	57.944738
4424.000000	58.007557
4422.000000	58.071068
4420.000000	58.134756
4418.000000	58.198961
4416.000000	58.263967
4414.000000	58.329982
4412.000000	58.394368
4410.000000	58.457656
4408.000000	58.521505
4406.000000	58.587684
4404.000000	58.653130
4402.000000	58.717628
4400.000000	58.782001
4398.000000	58.846509
4396.000000	58.909752
4394.000000	58.973108
4392.000000	59.035873
4390.000000	59.099143
4388.000000	59.161145
4386.000000	59.222566
4384.000000	59.284605
4382.000000	59.347826
4380.000000	59.409002
4378.000000	59.469476
4376.000000	59.529861
4374.000000	59.590725
4372.000000	59.650020
4370.000000	59.708471
4368.000000	59.767426
4366.000000	59.828810
4364.000000	59.889551
4362.000000	59.950221
4360.000000	60.011707
4358.000000	60.075234
4356.000000	60.138783
4354.000000	60.201031
4352.000000	60.262271
4350.000000	60.325511
4348.000000	60.388470
4346.000000	60.452329
4344.000000	60.516541
4342.000000	60.580147
4340.000000	60.642945
4338.000000	60.706818
4336.000000	60.770407
4334.000000	60.834538
4332.000000	60.898024
4330.000000	60.962132
4328.000000	61.026609
4326.000000	61.092712
4324.000000	61.159431
4322.000000	61.226894
4320.000000	61.294109
4318.000000	61.361653
4316.000000	61.428776
4314.000000	61.496653
4312.000000	61.564220
4310.000000	61.632127
4308.000000	61.699619
4306.000000	61.767056
4304.000000	61.833339
4302.000000	61.899324
4300.000000	61.964553
4298.000000	62.029895
4296.000000	62.095407
4294.000000	62.161528
4292.000000	62.225862
4290.000000	62.289309
4288.000000	62.351631
4286.000000	62.413356
4284.000000	62.474663
4282.000000	62.536738
4280.000000	62.597506
4278.000000	62.657207
4276.000000	62.716421
4274.000000	62.776104
4272.000000	62.834168
4270.000000	62.892025
4268.000000	62.950894
4266.000000	63.011482
4264.000000	63.072354
4262.000000	63.134896
4260.000000	63.197359
4258.000000	63.260384
4256.000000	63.324700
4254.000000	63.389355
4252.000000	63.451853
4250.000000	63.515007
4248.000000	63.578896
4246.000000	63.643697
4244.000000	63.708083
4242.000000	63.772765
4240.000000	63.836409
4238.000000	63.899618
4236.000000	63.963555
4234.000000	64.030069
4232.000000	64.095699
4230.000000	64.160393
4228.000000	64.225188
4226.000000	64.290329
4224.000000	64.353451
4222.000000	64.416862
4220.000000	64.481257
4218.000000	64.546506
4216.000000	64.610948
4214.000000	64.676203
4212.000000	64.741913
4210.000000	64.808695
4208.000000	64.874956
4206.000000	64.940908
4204.000000	65.007511
4202.000000	65.076028
4200.000000	65.143918
4198.000000	65.212608
4196.000000	65.281889
4194.000000	65.351311
4192.000000	65.419299
4190.000000	65.486664
4188.000000	65.553006
4186.000000	65.620761
4184.000000	65.688796
4182.000000	65.755210
4180.000000	65.819404
4178.000000	65.884676
4176.000000	65.951205
4174.000000	66.018356
4172.000000	66.083054
4170.000000	66.146898
4168.000000	66.210865
4166.000000	66.275512
4164.000000	66.339444
4162.000000	66.403264
4160.000000	66.466470
4158.000000	66.530539
4156.000000	66.594977
4154.000000	66.660491
4152.000000	66.725423
4150.000000	66.790363
4148.000000	66.854409
4146.000000	66.919176
4144.000000	66.984873
4142.000000	67.050963
4140.000000	67.115885
4138.000000	67.181402
4136.000000	67.246263
4134.000000	67.311655
4132.000000	67.377669
4130.000000	67.445260
4128.000000	67.512592
4126.000000	67.578925
4124.000000	67.644039
4122.000000	67.710359
4120.000000	67.776498
4118.000000	67.842661
4116.000000	67.908557
4114.000000	67.975626
4112.000000	68.041311
4110.000000	68.104693
4108.000000	68.166785
4106.000000	68.231274
4104.000000	68.297825
4102.000000	68.364949
4100.000000	68.428829
4098.000000	68.491258
4096.000000	68.554312
4094.000000	68.619258
4092.000000	68.684255
4090.000000	68.750956
4088.000000	68.820227
4086.000000	68.892067
4084.000000	68.962234
4082.000000	69.029669
4080.000000	69.096167
4078.000000	69.164580
4076.000000	69.231997
4074.000000	69.298267
4072.000000	69.363766
4070.000000	69.429384
4068.000000	69.493726
4066.000000	69.558250
4064.000000	69.623099
4062.000000	69.687811
4060.000000	69.751787
4058.000000	69.817344
4056.000000	69.882725
4054.000000	69.948330
4052.000000	70.013038
4050.000000	70.078005
4048.000000	70.140456
4046.000000	70.199937
4044.000000	70.263775
4042.000000	70.335133
4040.000000	70.405365
4038.000000	70.473238
4036.000000	70.539692
4034.000000	70.606224
4032.000000	70.672651
4030.000000	70.739031
4028.000000	70.803111
4026.000000	70.868680
4024.000000	70.937952
4022.000000	71.006983
4020.000000	71.074450
4018.000000	71.145106
4016.000000	71.215592
4014.000000	71.284318
4012.000000	71.350114
4010.000000	71.414632
4008.000000	71.483012
4006.000000	71.556824
4004.000000	71.628868
4002.000000	71.697865
4000.000000	71.764906
3998.000000	71.828036
3996.000000	71.887078
3994.000000	71.948359
3992.000000	72.011293
3990.000000	72.078544
3988.000000	72.149723
3986.000000	72.216631
3984.000000	72.276993
3982.000000	72.339591
3980.000000	72.403825
3978.000000	72.462010
3976.000000	72.514832
3974.000000	72.573008
3972.000000	72.637234
3970.000000	72.704265
3968.000000	72.772371
3966.000000	72.834849
3964.000000	72.883889
3962.000000	72.935013
3960.000000	72.999959
3958.000000	73.069023
3956.000000	73.132308
3954.000000	73.183698
3952.000000	73.211825
3950.000000	73.235051
3948.000000	73.291792
3946.000000	73.359429
3944.000000	73.404538
3942.000000	73.481637
3940.000000	73.598307
3938.000000	73.690766
3936.000000	73.718295
3934.000000	73.696599
3932.000000	73.721932
3930.000000	73.836582
3928.000000	73.936969
3926.000000	73.978248
3924.000000	74.029844
3922.000000	74.081483
3920.000000	74.075997
3918.000000	74.095706
3916.000000	74.243392
3914.000000	74.442476
3912.000000	74.573522
3910.000000	74.623363
3908.000000	74.535050
3906.000000	74.278518
3904.000000	74.060861
3902.000000	74.069309
3900.000000	74.293417
3898.000000	74.649476
3896.000000	74.908050
3894.000000	74.869798
3892.000000	74.764641
3890.000000	74.837252
3888.000000	74.821611
3886.000000	74.742182
3884.000000	74.887944
3882.000000	75.054064
3880.000000	75.193232
3878.000000	75.380211
3876.000000	75.418974
3874.000000	75.280822
3872.000000	75.017295
3870.000000	74.920497
3868.000000	75.145325
3866.000000	75.325916
3864.000000	75.449762
3862.000000	75.698606
3860.000000	75.903747
3858.000000	75.616311
3856.000000	74.595272
3854.000000	73.881755
3852.000000	74.511507
3850.000000	75.697613
3848.000000	76.346445
3846.000000	76.428374
3844.000000	76.307167
3842.000000	76.080910
3840.000000	75.661869
3838.000000	75.459111
3836.000000	75.824765
3834.000000	76.307935
3832.000000	76.597149
3830.000000	76.811284
3828.000000	76.945213
3826.000000	76.960249
3824.000000	76.725026
3822.000000	76.429207
3820.000000	76.433259
3818.000000	76.414085
3816.000000	76.481347
3814.000000	77.036257
3812.000000	77.522238
3810.000000	77.439921
3808.000000	77.129235
3806.000000	77.094324
3804.000000	76.998034
3802.000000	76.791653
3800.000000	77.090199
3798.000000	77.588237
3796.000000	77.885649
3794.000000	78.125397
3792.000000	78.292794
3790.000000	78.366840
3788.000000	78.390589
3786.000000	78.401117
3784.000000	78.430988
3782.000000	78.416714
3780.000000	78.395263
3778.000000	78.524150
3776.000000	78.712078
3774.000000	78.751657
3772.000000	78.601963
3770.000000	78.498153
3768.000000	78.585781
3766.000000	78.741391
3764.000000	78.882961
3762.000000	78.892288
3760.000000	78.818971
3758.000000	78.860929
3756.000000	78.763041
3754.000000	78.157728
3752.000000	77.494954
3750.000000	77.507681
3748.000000	77.766100
3746.000000	77.535182
3744.000000	77.698750
3742.000000	78.649897
3740.000000	79.152039
3738.000000	78.888189
3736.000000	78.628751
3734.000000	78.742879
3732.000000	79.131476
3730.000000	79.583209
3728.000000	79.777318
3726.000000	79.798078
3724.000000	79.870051
3722.000000	79.996281
3720.000000	80.160483
3718.000000	80.301558
3716.000000	80.233387
3714.000000	79.850408
3712.000000	79.592641
3710.000000	79.850924
3708.000000	80.332918
3706.000000	80.622277
3704.000000	80.620925
3702.000000	80.587259
3700.000000	80.738981
3698.000000	80.919204
3696.000000	80.971330
3694.000000	80.828749
3692.000000	80.395034
3690.000000	79.905044
3688.000000	80.026789
3686.000000	80.718189
3684.000000	81.191889
3682.000000	81.243340
3680.000000	80.996367
3678.000000	80.388039
3676.000000	79.940922
3674.000000	80.109917
3672.000000	80.237272
3670.000000	80.368054
3668.000000	80.947576
3666.000000	81.489773
3664.000000	81.692572
3662.000000	81.726480
3660.000000	81.620432
3658.000000	81.348604
3656.000000	81.244676
3654.000000	81.265182
3652.000000	80.864582
3650.000000	80.395951
3648.000000	80.610237
3646.000000	81.275468
3644.000000	81.744355
3642.000000	81.902646
3640.000000	81.943732
3638.000000	81.948122
3636.000000	81.903804
3634.000000	81.774675
3632.000000	81.345858
3630.000000	80.795467
3628.000000	80.928659
3626.000000	81.583351
3624.000000	81.905728
3622.000000	81.728521
3620.000000	81.464353
3618.000000	81.506583
3616.000000	81.657958
3614.000000	81.640210
3612.000000	81.540419
3610.000000	81.471571
3608.000000	81.591583
3606.000000	81.867026
3604.000000	82.021316
3602.000000	82.009740
3600.000000	81.971696
3598.000000	81.937260
3596.000000	81.892046
3594.000000	81.903047
3592.000000	81.886968
3590.000000	81.682469
3588.000000	81.515861
3586.000000	81.660756
3584.000000	81.912160
3582.000000	82.024569
3580.000000	82.035041
3578.000000	82.030412
3576.000000	82.028433
3574.000000	82.027053
3572.000000	81.963860
3570.000000	81.744859
3568.000000	81.524858
3566.000000	81.574067
3564.000000	81.780007
3562.000000	81.900647
3560.000000	81.938339
3558.000000	81.960357
3556.000000	81.948429
3554.000000	81.895722
3552.000000	81.866209
3550.000000	81.850880
3548.000000	81.781199
3546.000000	81.729384
3544.000000	81.773658
3542.000000	81.845930
3540.000000	81.864380
3538.000000	81.831598
3536.000000	81.804828
3534.000000	81.798193
3532.000000	81.760621
3530.000000	81.687171
3528.000000	81.620886
3526.000000	81.573265
3524.000000	81.539384
3522.000000	81.534475
3520.000000	81.535723
3518.000000	81.517876
3516.000000	81.488063
3514.000000	81.443150
3512.000000	81.377213
3510.000000	81.313711
3508.000000	81.274546
3506.000000	81.215222
3504.000000	81.127223
3502.000000	81.078870
3500.000000	81.062259
3498.000000	81.019842
3496.000000	80.962140
3494.000000	80.915586
3492.000000	80.866828
3490.000000	80.805237
3488.000000	80.746597
3486.000000	80.702146
3484.000000	80.654784
3482.000000	80.612383
3480.000000	80.601068
3478.000000	80.605261
3476.000000	80.603421
3474.000000	80.605585
3472.000000	80.614524
3470.000000	80.619218
3468.000000	80.628881
3466.000000	80.658622
3464.000000	80.695978
3462.000000	80.732040
3460.000000	80.772827
3458.000000	80.814195
3456.000000	80.849226
3454.000000	80.878292
3452.000000	80.898751
3450.000000	80.897186
3448.000000	80.887194
3446.000000	80.913135
3444.000000	80.967961
3442.000000	81.030175
3440.000000	81.106619
3438.000000	81.193622
3436.000000	81.292313
3434.000000	81.413785
3432.000000	81.554758
3430.000000	81.699619
3428.000000	81.843215
3426.000000	81.980808
3424.000000	82.100694
3422.000000	82.203961
3420.000000	82.313604
3418.000000	82.430341
3416.000000	82.530566
3414.000000	82.611192
3412.000000	82.684415
3410.000000	82.752413
3408.000000	82.813861
3406.000000	82.869681
3404.000000	82.917773
3402.000000	82.961879
3400.000000	83.017719
3398.000000	83.093946
3396.000000	83.176060
3394.000000	83.243511
3392.000000	83.308224
3390.000000	83.390699
3388.000000	83.471058
3386.000000	83.532717
3384.000000	83.590425
3382.000000	83.650105
3380.000000	83.706640
3378.000000	83.759573
3376.000000	83.810181
3374.000000	83.856895
3372.000000	83.892062
3370.000000	83.917503
3368.000000	83.954497
3366.000000	84.007689
3364.000000	84.063007
3362.000000	84.111679
3360.000000	84.155942
3358.000000	84.199573
3356.000000	84.243457
3354.000000	84.285957
3352.000000	84.323899
3350.000000	84.363660
3348.000000	84.411142
3346.000000	84.457117
3344.000000	84.497060
3342.000000	84.533342
3340.000000	84.566951
3338.000000	84.601212
3336.000000	84.643353
3334.000000	84.691653
3332.000000	84.736687
3330.000000	84.773651
3328.000000	84.805171
3326.000000	84.837058
3324.000000	84.876761
3322.000000	84.920593
3320.000000	84.959156
3318.000000	84.993744
3316.000000	85.028420
3314.000000	85.060885
3312.000000	85.089815
3310.000000	85.112170
3308.000000	85.131972
3306.000000	85.159922
3304.000000	85.205593
3302.000000	85.259446
3300.000000	85.302584
3298.000000	85.335560
3296.000000	85.366042
3294.000000	85.394083
3292.000000	85.425507
3290.000000	85.468898
3288.000000	85.516036
3286.000000	85.557401
3284.000000	85.594953
3282.000000	85.631882
3280.000000	85.668562
3278.000000	85.702548
3276.000000	85.734216
3274.000000	85.766510
3272.000000	85.803708
3270.000000	85.849643
3268.000000	85.901142
3266.000000	85.948513
3264.000000	85.991408
3262.000000	86.032749
3260.000000	86.075858
3258.000000	86.117588
3256.000000	86.157589
3254.000000	86.203555
3252.000000	86.256528
3250.000000	86.305801
3248.000000	86.347118
3246.000000	86.388182
3244.000000	86.441523
3242.000000	86.499613
3240.000000	86.551723
3238.000000	86.599718
3236.000000	86.643453
3234.000000	86.683874
3232.000000	86.734833
3230.000000	86.792806
3228.000000	86.847884
3226.000000	86.901019
3224.000000	86.949316
3222.000000	86.992968
3220.000000	87.038016
3218.000000	87.087186
3216.000000	87.135901
3214.000000	87.184181
3212.000000	87.236175
3210.000000	87.289125
3208.000000	87.349080
3206.000000	87.414386
3204.000000	87.481217
3202.000000	87.549493
3200.000000	87.616692
3198.000000	87.686011
3196.000000	87.762434
3194.000000	87.839908
3192.000000	87.913533
3190.000000	87.983975
3188.000000	88.053271
3186.000000	88.122726
3184.000000	88.196139
3182.000000	88.268636
3180.000000	88.335931
3178.000000	88.404756
3176.000000	88.481664
3174.000000	88.558292
3172.000000	88.631296
3170.000000	88.703412
3168.000000	88.777751
3166.000000	88.853951
3164.000000	88.931324
3162.000000	89.008171
3160.000000	89.085886
3158.000000	89.165035
3156.000000	89.242036
3154.000000	89.310733
3152.000000	89.382220
3150.000000	89.468310
3148.000000	89.555454
3146.000000	89.633194
3144.000000	89.707746
3142.000000	89.779033
3140.000000	89.848271
3138.000000	89.920447
3136.000000	89.992035
3134.000000	90.056341
3132.000000	90.123106
3130.000000	90.192404
3128.000000	90.257243
3126.000000	90.318499
3124.000000	90.375698
3122.000000	90.425313
3120.000000	90.472252
3118.000000	90.519615
3116.000000	90.575188
3114.000000	90.642489
3112.000000	90.706710
3110.000000	90.757254
3108.000000	90.809571
3106.000000	90.870346
3104.000000	90.928378
3102.000000	90.983925
3100.000000	91.046651
3098.000000	91.112538
3096.000000	91.178815
3094.000000	91.247110
3092.000000	91.312021
3090.000000	91.371285
3088.000000	91.428957
3086.000000	91.480203
3084.000000	91.526643
3082.000000	91.568364
3080.000000	91.604202
3078.000000	91.643135
3076.000000	91.688023
3074.000000	91.722216
3072.000000	91.741791
3070.000000	91.748458
3068.000000	91.750255
3066.000000	91.764541
3064.000000	91.802038
3062.000000	91.853884
3060.000000	91.909029
3058.000000	91.963802
3056.000000	92.024572
3054.000000	92.088746
3052.000000	92.145847
3050.000000	92.196293
3048.000000	92.247428
3046.000000	92.289640
3044.000000	92.318666
3042.000000	92.342839
3040.000000	92.369946
3038.000000	92.390813
3036.000000	92.398881
3034.000000	92.395362
3032.000000	92.382654
3030.000000	92.352397
3028.000000	92.288773
3026.000000	92.181146
3024.000000	92.050377
3022.000000	91.932987
3020.000000	91.868062
3018.000000	91.893185
3016.000000	92.030756
3014.000000	92.263985
3012.000000	92.549718
3010.000000	92.833058
3008.000000	93.066226
3006.000000	93.229438
3004.000000	93.340993
3002.000000	93.422206
3000.000000	93.482896
2998.000000	93.524183
2996.000000	93.553530
2994.000000	93.572728
2992.000000	93.584805
2990.000000	93.587462
2988.000000	93.572472
2986.000000	93.536338
2984.000000	93.477778
2982.000000	93.389050
2980.000000	93.266108
2978.000000	93.099965
2976.000000	92.872654
2974.000000	92.564311
2972.000000	92.167933
2970.000000	91.685331
2968.000000	91.157457
2966.000000	90.669111
2964.000000	90.311658
2962.000000	90.138571
2960.000000	90.151536
2958.000000	90.293987
2956.000000	90.488804
2954.000000	90.674100
2952.000000	90.817596
2950.000000	90.888326
2948.000000	90.852413
2946.000000	90.686781
2944.000000	90.391089
2942.000000	89.977955
2940.000000	89.484467
2938.000000	88.969570
2936.000000	88.494144
2934.000000	88.069876
2932.000000	87.667831
2930.000000	87.274635
2928.000000	86.943971
2926.000000	86.779060
2924.000000	86.887667
2922.000000	87.309465
2920.000000	87.987407
2918.000000	88.805554
2916.000000	89.659648
2914.000000	90.466113
2912.000000	91.163602
2910.000000	91.721026
2908.000000	92.154305
2906.000000	92.504085
2904.000000	92.807570
2902.000000	93.082159
2900.000000	93.338377
2898.000000	93.578392
2896.000000	93.805451
2894.000000	94.022462
2892.000000	94.228169
2890.000000	94.413968
2888.000000	94.576944
2886.000000	94.706434
2884.000000	94.794809
2882.000000	94.838247
2880.000000	94.836062
2878.000000	94.782995
2876.000000	94.670488
2874.000000	94.488388
2872.000000	94.232085
2870.000000	93.871514
2868.000000	93.383465
2866.000000	92.806064
2864.000000	92.260170
2862.000000	91.902404
2860.000000	91.826832
2858.000000	91.995380
2856.000000	92.299223
2854.000000	92.658242
2852.000000	93.072179
2850.000000	93.579005
2848.000000	94.183868
2846.000000	94.806031
2844.000000	95.351884
2842.000000	95.787469
2840.000000	96.127614
2838.000000	96.398146
2836.000000	96.621349
2834.000000	96.805614
2832.000000	96.961766
2830.000000	97.096660
2828.000000	97.217717
2826.000000	97.328090
2824.000000	97.430601
2822.000000	97.524154
2820.000000	97.610959
2818.000000	97.689711
2816.000000	97.761211
2814.000000	97.824418
2812.000000	97.882740
2810.000000	97.934183
2808.000000	97.982655
2806.000000	98.029216
2804.000000	98.076140
2802.000000	98.120606
2800.000000	98.163601
2798.000000	98.204980
2796.000000	98.245795
2794.000000	98.285694
2792.000000	98.332039
2790.000000	98.387971
2788.000000	98.458611
2786.000000	98.540180
2784.000000	98.625461
2782.000000	98.705378
2780.000000	98.779941
2778.000000	98.847308
2776.000000	98.907900
2774.000000	98.963520
2772.000000	99.020580
2770.000000	99.074698
2768.000000	99.125691
2766.000000	99.173774
2764.000000	99.222298
2762.000000	99.267652
2760.000000	99.311635
2758.000000	99.354232
2756.000000	99.397153
2754.000000	99.438152
2752.000000	99.478668
2750.000000	99.515851
2748.000000	99.552421
2746.000000	99.588379
2744.000000	99.623978
2742.000000	99.657401
2740.000000	99.691798
2738.000000	99.725718
2736.000000	99.759919
2734.000000	99.792357
2732.000000	99.826459
2730.000000	99.860148
2728.000000	99.892934
2726.000000	99.923721
2724.000000	99.955960
2722.000000	99.987333
2720.000000	100.018934
2718.000000	100.047867
2716.000000	100.076659
2714.000000	100.103844
2712.000000	100.129307
2710.000000	100.151370
2708.000000	100.175109
2706.000000	100.201105
2704.000000	100.231453
2702.000000	100.266065
2700.000000	100.309004
2698.000000	100.355600
2696.000000	100.403016
2694.000000	100.446991
2692.000000	100.490667
2690.000000	100.531754
2688.000000	100.572345
2686.000000	100.611760
2684.000000	100.650754
2682.000000	100.686268
2680.000000	100.721443
2678.000000	100.753831
2676.000000	100.786134
2674.000000	100.817433
2672.000000	100.847727
2670.000000	100.876507
2668.000000	100.907353
2666.000000	100.936307
2664.000000	100.964355
2662.000000	100.991269
2660.000000	101.021626
2658.000000	101.052584
2656.000000	101.086319
2654.000000	101.120774
2652.000000	101.158253
2650.000000	101.196981
2648.000000	101.237206
2646.000000	101.275841
2644.000000	101.313907
2642.000000	101.349340
2640.000000	101.385564
2638.000000	101.419316
2636.000000	101.452910
2634.000000	101.484767
2632.000000	101.516618
2630.000000	101.544989
2628.000000	101.572411
2626.000000	101.598712
2624.000000	101.626388
2622.000000	101.653184
2620.000000	101.681190
2618.000000	101.707274
2616.000000	101.733405
2614.000000	101.758323
2612.000000	101.782919
2610.000000	101.802421
2608.000000	101.821374
2606.000000	101.838603
2604.000000	101.854319
2602.000000	101.865682
2600.000000	101.876158
2598.000000	101.884501
2596.000000	101.894922
2594.000000	101.908641
2592.000000	101.931240
2590.000000	101.962004
2588.000000	102.003706
2586.000000	102.053202
2584.000000	102.111699
2582.000000	102.173104
2580.000000	102.235190
2578.000000	102.293307
2576.000000	102.348005
2574.000000	102.394733
2572.000000	102.437107
2570.000000	102.475138
2568.000000	102.513155
2566.000000	102.547577
2564.000000	102.579325
2562.000000	102.608791
2560.000000	102.638813
2558.000000	102.665508
2556.000000	102.692263
2554.000000	102.717153
2552.000000	102.744135
2550.000000	102.769222
2548.000000	102.794973
2546.000000	102.819863
2544.000000	102.845870
2542.000000	102.870064
2540.000000	102.896025
2538.000000	102.921701
2536.000000	102.948215
2534.000000	102.973661
2532.000000	103.001888
2530.000000	103.026749
2528.000000	103.051689
2526.000000	103.075461
2524.000000	103.098589
2522.000000	103.120774
2520.000000	103.145728
2518.000000	103.168779
2516.000000	103.192366
2514.000000	103.213956
2512.000000	103.235933
2510.000000	103.256949
2508.000000	103.278313
2506.000000	103.297163
2504.000000	103.317395
2502.000000	103.337525
2500.000000	103.361769
2498.000000	103.386033
2496.000000	103.412353
2494.000000	103.438525
2492.000000	103.465470
2490.000000	103.489106
2488.000000	103.514949
2486.000000	103.540703
2484.000000	103.567471
2482.000000	103.591171
2480.000000	103.615600
2478.000000	103.639412
2476.000000	103.663032
2474.000000	103.683293
2472.000000	103.703651
2470.000000	103.722060
2468.000000	103.740206
2466.000000	103.754693
2464.000000	103.770899
2462.000000	103.785986
2460.000000	103.801653
2458.000000	103.816704
2456.000000	103.834901
2454.000000	103.850567
2452.000000	103.867142
2450.000000	103.883125
2448.000000	103.899131
2446.000000	103.913275
2444.000000	103.929835
2442.000000	103.943700
2440.000000	103.958062
2438.000000	103.972690
2436.000000	103.988411
2434.000000	103.999893
2432.000000	104.012502
2430.000000	104.022776
2428.000000	104.033067
2426.000000	104.045330
2424.000000	104.062161
2422.000000	104.076784
2420.000000	104.091830
2418.000000	104.104137
2416.000000	104.116340
2414.000000	104.125782
2412.000000	104.138000
2410.000000	104.148842
2408.000000	104.161420
2406.000000	104.174094
2404.000000	104.189360
2402.000000	104.203176
2400.000000	104.219171
2398.000000	104.234534
2396.000000	104.252139
2394.000000	104.268166
2392.000000	104.285697
2390.000000	104.299802
2388.000000	104.311828
2386.000000	104.315218
2384.000000	104.306109
2382.000000	104.270048
2380.000000	104.199017
2378.000000	104.081655
2376.000000	103.917426
2374.000000	103.704266
2372.000000	103.457618
2370.000000	103.194517
2368.000000	102.945404
2366.000000	102.738177
2364.000000	102.601994
2362.000000	102.555004
2360.000000	102.611654
2358.000000	102.770993
2356.000000	103.029042
2354.000000	103.361794
2352.000000	103.733164
2350.000000	104.004449
2348.000000	103.991785
2346.000000	103.749039
2344.000000	103.489242
2342.000000	103.301497
2340.000000	103.194421
2338.000000	103.145230
2336.000000	103.144571
2334.000000	103.177825
2332.000000	103.241236
2330.000000	103.330636
2328.000000	103.444282
2326.000000	103.567085
2324.000000	103.695136
2322.000000	103.819899
2320.000000	103.941144
2318.000000	104.051983
2316.000000	104.153109
2314.000000	104.239466
2312.000000	104.315432
2310.000000	104.377935
2308.000000	104.431394
2306.000000	104.473244
2304.000000	104.509830
2302.000000	104.537730
2300.000000	104.563047
2298.000000	104.584060
2296.000000	104.603366
2294.000000	104.618235
2292.000000	104.633976
2290.000000	104.645912
2288.000000	104.657484
2286.000000	104.663730
2284.000000	104.670091
2282.000000	104.671403
2280.000000	104.670281
2278.000000	104.664553
2276.000000	104.659478
2274.000000	104.652107
2272.000000	104.647345
2270.000000	104.641523
2268.000000	104.637415
2266.000000	104.631669
2264.000000	104.628595
2262.000000	104.622612
2260.000000	104.620210
2258.000000	104.617565
2256.000000	104.618890
2254.000000	104.619225
2252.000000	104.624046
2250.000000	104.629463
2248.000000	104.637361
2246.000000	104.644547
2244.000000	104.656377
2242.000000	104.667224
2240.000000	104.680546
2238.000000	104.692660
2236.000000	104.707595
2234.000000	104.719960
2232.000000	104.733879
2230.000000	104.745737
2228.000000	104.759857
2226.000000	104.769683
2224.000000	104.779676
2222.000000	104.787141
2220.000000	104.796817
2218.000000	104.802533
2216.000000	104.809109
2214.000000	104.813209
2212.000000	104.819429
2210.000000	104.822864
2208.000000	104.827539
2206.000000	104.829166
2204.000000	104.834831
2202.000000	104.838627
2200.000000	104.844986
2198.000000	104.848264
2196.000000	104.852567
2194.000000	104.852222
2192.000000	104.853924
2190.000000	104.852407
2188.000000	104.852763
2186.000000	104.851797
2184.000000	104.852626
2182.000000	104.849065
2180.000000	104.848648
2178.000000	104.846929
2176.000000	104.846015
2174.000000	104.835053
2172.000000	104.810062
2170.000000	104.782776
2168.000000	104.794562
2166.000000	104.817411
2164.000000	104.827283
2162.000000	104.826124
2160.000000	104.825377
2158.000000	104.822813
2156.000000	104.824704
2154.000000	104.821677
2152.000000	104.819710
2150.000000	104.815604
2148.000000	104.815819
2146.000000	104.814003
2144.000000	104.814232
2142.000000	104.810104
2140.000000	104.807735
2138.000000	104.802372
2136.000000	104.801285
2134.000000	104.801478
2132.000000	104.802139
2130.000000	104.798369
2128.000000	104.797110
2126.000000	104.794280
2124.000000	104.795495
2122.000000	104.796167
2120.000000	104.798004
2118.000000	104.798027
2116.000000	104.801617
2114.000000	104.806882
2112.000000	104.818276
2110.000000	104.829065
2108.000000	104.843095
2106.000000	104.855548
2104.000000	104.869434
2102.000000	104.877911
2100.000000	104.888532
2098.000000	104.898219
2096.000000	104.912707
2094.000000	104.923735
2092.000000	104.935115
2090.000000	104.942141
2088.000000	104.960458
2086.000000	104.976985
2084.000000	104.995246
2082.000000	105.008530
2080.000000	105.026032
2078.000000	105.040322
2076.000000	105.058747
2074.000000	105.072683
2072.000000	105.091925
2070.000000	105.108220
2068.000000	105.121990
2066.000000	105.124656
2064.000000	105.148518
2062.000000	105.182538
2060.000000	105.211070
2058.000000	105.232487
2056.000000	105.254383
2054.000000	105.271686
2052.000000	105.294142
2050.000000	105.312019
2048.000000	105.331451
2046.000000	105.347006
2044.000000	105.361986
2042.000000	105.368990
2040.000000	105.391646
2038.000000	105.413401
2036.000000	105.428019
2034.000000	105.434989
2032.000000	105.435807
2030.000000	105.417040
2028.000000	105.428190
2026.000000	105.463548
2024.000000	105.485855
2022.000000	105.491162
2020.000000	105.485396
2018.000000	105.469561
2016.000000	105.496548
2014.000000	105.544615
2012.000000	105.574606
2010.000000	105.587022
2008.000000	105.600676
2006.000000	105.613906
2004.000000	105.626657
2002.000000	105.628708
2000.000000	105.633217
1998.000000	105.637915
1996.000000	105.636291
1994.000000	105.579520
1992.000000	105.531790
1990.000000	105.570221
1988.000000	105.612532
1986.000000	105.627180
1984.000000	105.628982
1982.000000	105.617523
1980.000000	105.607148
1978.000000	105.591747
1976.000000	105.576465
1974.000000	105.558962
1972.000000	105.540980
1970.000000	105.494863
1968.000000	105.424417
1966.000000	105.408033
1964.000000	105.427028
1962.000000	105.374450
1960.000000	105.253798
1958.000000	105.222698
1956.000000	105.301136
1954.000000	105.326264
1952.000000	105.309949
1950.000000	105.276319
1948.000000	105.248023
1946.000000	105.187895
1944.000000	105.070658
1942.000000	105.025488
1940.000000	105.121104
1938.000000	105.154718
1936.000000	105.135778
1934.000000	105.103415
1932.000000	105.079449
1930.000000	105.050032
1928.000000	105.021950
1926.000000	104.954588
1924.000000	104.840172
1922.000000	104.776891
1920.000000	104.660111
1918.000000	104.507950
1916.000000	104.637274
1914.000000	104.730362
1912.000000	104.667097
1910.000000	104.562530
1908.000000	104.527143
1906.000000	104.508858
1904.000000	104.473851
1902.000000	104.420006
1900.000000	104.376815
1898.000000	104.305759
1896.000000	104.225367
1894.000000	104.188675
1892.000000	104.128485
1890.000000	103.994616
1888.000000	104.045451
1886.000000	104.125871
1884.000000	104.130641
1882.000000	104.113967
1880.000000	104.097355
1878.000000	104.067597
1876.000000	104.049874
1874.000000	104.007652
1872.000000	103.831180
1870.000000	103.472500
1868.000000	103.436364
1866.000000	103.695127
1864.000000	103.830563
1862.000000	103.815630
1860.000000	103.784900
1858.000000	103.753703
1856.000000	103.735317
1854.000000	103.695797
1852.000000	103.657267
1850.000000	103.567659
1848.000000	103.387662
1846.000000	102.885394
1844.000000	102.581041
1842.000000	103.020446
1840.000000	103.321251
1838.000000	103.269812
1836.000000	103.219297
1834.000000	103.143857
1832.000000	102.837994
1830.000000	102.527589
1828.000000	102.603813
1826.000000	102.570289
1824.000000	102.596800
1822.000000	102.747995
1820.000000	102.739158
1818.000000	102.644052
1816.000000	102.586092
1814.000000	102.485947
1812.000000	102.292281
1810.000000	102.177841
1808.000000	102.186701
1806.000000	102.130692
1804.000000	101.936896
1802.000000	101.625535
1800.000000	101.482780
1798.000000	101.514268
1796.000000	101.377146
1794.000000	100.770114
1792.000000	100.442966
1790.000000	100.841542
1788.000000	101.064504
1786.000000	100.835158
1784.000000	100.687405
1782.000000	100.601458
1780.000000	100.501648
1778.000000	100.463669
1776.000000	100.148178
1774.000000	99.274952
1772.000000	98.844701
1770.000000	99.267854
1768.000000	99.515583
1766.000000	99.769223
1764.000000	99.609736
1762.000000	99.206550
1760.000000	99.265055
1758.000000	99.197140
1756.000000	99.066336
1754.000000	98.850550
1752.000000	98.091714
1750.000000	97.854383
1748.000000	98.117378
1746.000000	98.219511
1744.000000	98.079696
1742.000000	97.713770
1740.000000	97.355381
1738.000000	97.335210
1736.000000	96.379381
1734.000000	95.398605
1732.000000	96.346812
1730.000000	97.251925
1728.000000	97.486638
1726.000000	97.491893
1724.000000	97.387964
1722.000000	97.201232
1720.000000	96.276571
1718.000000	94.992115
1716.000000	95.248008
1714.000000	96.217896
1712.000000	96.709999
1710.000000	96.667443
1708.000000	96.316192
1706.000000	95.880389
1704.000000	95.649542
1702.000000	94.445334
1700.000000	93.552325
1698.000000	93.896064
1696.000000	93.810861
1694.000000	94.948837
1692.000000	95.951183
1690.000000	95.886392
1688.000000	95.383918
1686.000000	93.749535
1684.000000	93.131175
1682.000000	94.610238
1680.000000	95.467713
1678.000000	95.289004
1676.000000	94.591148
1674.000000	94.596428
1672.000000	94.671250
1670.000000	94.240329
1668.000000	94.517143
1666.000000	94.923098
1664.000000	94.580523
1662.000000	94.413313
1660.000000	94.698704
1658.000000	94.606240
1656.000000	93.248871
1654.000000	90.716010
1652.000000	90.916982
1650.000000	92.932584
1648.000000	92.808414
1646.000000	92.452736
1644.000000	93.229125
1642.000000	93.688138
1640.000000	93.444411
1638.000000	92.513771
1636.000000	91.424900
1634.000000	91.927994
1632.000000	92.750705
1630.000000	92.592049
1628.000000	92.161677
1626.000000	91.736133
1624.000000	91.092519
1622.000000	90.798214
1620.000000	90.437731
1618.000000	89.153048
1616.000000	88.612264
1614.000000	89.094832
1612.000000	88.810985
1610.000000	88.169575
1608.000000	87.843689
1606.000000	87.892915
1604.000000	88.090767
1602.000000	88.339423
1600.000000	88.587517
1598.000000	88.794242
1596.000000	88.929210
1594.000000	89.044021
1592.000000	89.120404
1590.000000	89.130894
1588.000000	89.098202
1586.000000	89.032504
1584.000000	88.955824
1582.000000	88.900765
1580.000000	88.710503
1578.000000	87.711370
1576.000000	87.008534
1574.000000	87.930851
1572.000000	88.227053
1570.000000	87.708351
1568.000000	87.803982
1566.000000	87.923913
1564.000000	87.599320
1562.000000	86.250636
1560.000000	84.020179
1558.000000	84.056595
1556.000000	85.655313
1554.000000	86.528295
1552.000000	87.191539
1550.000000	87.554451
1548.000000	87.739551
1546.000000	87.523448
1544.000000	86.992805
1542.000000	86.076871
1540.000000	85.565765
1538.000000	86.993617
1536.000000	88.406984
1534.000000	88.412089
1532.000000	88.767052
1530.000000	89.132917
1528.000000	88.902399
1526.000000	88.548586
1524.000000	88.109513
1522.000000	87.287162
1520.000000	87.451703
1518.000000	87.926138
1516.000000	87.963653
1514.000000	88.004806
1512.000000	87.794979
1510.000000	87.151680
1508.000000	85.513383
1506.000000	84.739052
1504.000000	85.518251
1502.000000	85.014535
1500.000000	82.477123
1498.000000	79.007493
1496.000000	76.482603
1494.000000	76.287151
1492.000000	77.369826
1490.000000	79.008233
1488.000000	81.008858
1486.000000	82.732035
1484.000000	83.864172
1482.000000	84.376058
1480.000000	84.611879
1478.000000	84.471773
1476.000000	83.977819
1474.000000	83.249163
1472.000000	83.074624
1470.000000	83.599486
1468.000000	83.558258
1466.000000	82.847566
1464.000000	82.454969
1462.000000	82.289360
1460.000000	81.165456
1458.000000	79.104737
1456.000000	78.121362
1454.000000	78.229875
1452.000000	77.923931
1450.000000	77.974526
1448.000000	78.757113
1446.000000	79.793721
1444.000000	80.339815
1442.000000	80.465492
1440.000000	80.295664
1438.000000	79.671878
1436.000000	79.587586
1434.000000	80.281424
1432.000000	80.434423
1430.000000	80.342850
1428.000000	80.408470
1426.000000	80.429181
1424.000000	80.286783
1422.000000	79.966150
1420.000000	79.227593
1418.000000	79.221688
1416.000000	79.631825
1414.000000	79.602849
1412.000000	79.252263
1410.000000	78.729464
1408.000000	77.964896
1406.000000	77.099114
1404.000000	76.628221
1402.000000	76.660216
1400.000000	76.803400
1398.000000	77.197287
1396.000000	77.538504
1394.000000	77.878043
1392.000000	78.333532
1390.000000	78.338823
1388.000000	77.922450
1386.000000	77.690147
1384.000000	77.693304
1382.000000	77.816008
1380.000000	77.904727
1378.000000	77.835712
1376.000000	77.631489
1374.000000	77.465085
1372.000000	77.482746
1370.000000	77.419387
1368.000000	77.266395
1366.000000	77.100912
1364.000000	76.805418
1362.000000	76.594697
1360.000000	76.562714
1358.000000	76.477969
1356.000000	76.285673
1354.000000	76.080824
1352.000000	75.879393
1350.000000	75.663104
1348.000000	75.445370
1346.000000	75.220692
1344.000000	74.969821
1342.000000	74.662983
1340.000000	74.362614
1338.000000	74.234299
1336.000000	74.200237
1334.000000	74.128486
1332.000000	73.982253
1330.000000	73.791645
1328.000000	73.570476
1326.000000	73.328585
1324.000000	73.062724
1322.000000	72.772288
1320.000000	72.451955
1318.000000	72.150224
1316.000000	71.862338
1314.000000	71.553253
1312.000000	71.244093
1310.000000	70.942162
1308.000000	70.616935
1306.000000	70.285301
1304.000000	69.946123
1302.000000	69.603793
1300.000000	69.256824
1298.000000	68.908941
1296.000000	68.550553
1294.000000	68.185356
1292.000000	67.802202
1290.000000	67.405853
1288.000000	67.001793
1286.000000	66.605161
1284.000000	66.194485
1282.000000	65.762657
1280.000000	65.305152
1278.000000	64.818376
1276.000000	64.278227
1274.000000	63.662290
1272.000000	62.929317
1270.000000	62.042041
1268.000000	60.938413
1266.000000	59.620367
1264.000000	58.245841
1262.000000	57.138897
1260.000000	56.583622
1258.000000	56.591764
1256.000000	56.884137
1254.000000	57.131159
1252.000000	57.130531
1250.000000	56.887565
1248.000000	56.491787
1246.000000	56.018873
1244.000000	55.508961
1242.000000	54.994296
1240.000000	54.485125
1238.000000	53.993275
1236.000000	53.514368
1234.000000	53.050741
1232.000000	52.596634
1230.000000	52.149806
1228.000000	51.700999
1226.000000	51.249585
1224.000000	50.790538
1222.000000	50.320119
1220.000000	49.825397
1218.000000	49.312854
1216.000000	48.790517
1214.000000	48.274096
1212.000000	47.779856
1210.000000	47.326971
1208.000000	46.908439
1206.000000	46.510071
1204.000000	46.113194
1202.000000	45.715209
1200.000000	45.319477
1198.000000	44.931482
1196.000000	44.538003
1194.000000	44.133317
1192.000000	43.713551
1190.000000	43.283557
1188.000000	42.839426
1186.000000	42.369223
1184.000000	41.786888
1182.000000	41.057640
1180.000000	40.488454
1178.000000	40.238857
1176.000000	40.006454
1174.000000	39.649422
1172.000000	39.222608
1170.000000	38.774101
1168.000000	38.308082
1166.000000	37.832956
1164.000000	37.359946
1162.000000	36.899302
1160.000000	36.444525
1158.000000	36.006971
1156.000000	35.584067
1154.000000	35.164965
1152.000000	34.738095
1150.000000	34.316358
1148.000000	33.886141
1146.000000	33.447492
1144.000000	33.017431
1142.000000	32.639041
1140.000000	32.327644
1138.000000	32.015308
1136.000000	31.655025
1134.000000	31.262090
1132.000000	30.846254
1130.000000	30.420266
1128.000000	29.997155
1126.000000	29.577879
1124.000000	29.150005
1122.000000	28.712422
1120.000000	28.262097
1118.000000	27.804282
1116.000000	27.337201
1114.000000	26.869178
1112.000000	26.399764
1110.000000	25.936734
1108.000000	25.483054
1106.000000	25.045944
1104.000000	24.627325
1102.000000	24.217638
1100.000000	23.804380
1098.000000	23.395436
1096.000000	22.996438
1094.000000	22.613799
1092.000000	22.246339
1090.000000	21.894383
1088.000000	21.551753
1086.000000	21.215295
1084.000000	20.869106
1082.000000	20.510067
1080.000000	20.170100
1078.000000	19.866769
1076.000000	19.590411
1074.000000	19.357495
1072.000000	19.140745
1070.000000	18.916678
1068.000000	18.687168
1066.000000	18.457217
1064.000000	18.225988
1062.000000	17.991671
1060.000000	17.743169
1058.000000	17.455486
1056.000000	17.065990
1054.000000	16.554433
1052.000000	16.048282
1050.000000	15.749034
1048.000000	15.714908
1046.000000	15.797223
1044.000000	15.798513
1042.000000	15.681642
1040.000000	15.496803
1038.000000	15.284306
1036.000000	15.056352
1034.000000	14.816996
1032.000000	14.566920
1030.000000	14.310705
1028.000000	14.046001
1026.000000	13.776122
1024.000000	13.502916
1022.000000	13.235620
1020.000000	12.981106
1018.000000	12.746516
1016.000000	12.534457
1014.000000	12.345727
1012.000000	12.174440
1010.000000	12.012984
1008.000000	11.848268
1006.000000	11.671915
1004.000000	11.476553
1002.000000	11.263270
1000.000000	11.033014
