PE IR       SUBTECH     SPECTRUM    ASCII       PEDS        4.00        
   -1
TE110A_100_80K_AFTER_160K_BG.ASC
20/05/14
17:22:59.00
20/05/14
17:22:59.00
Administrator
TE110A.Thursday, May 14 2020, 010.
1000.000000
#HDR
-1
-1
#GR
cm-1
EGY
1.0
0.0
6000.000000
-2.000000
2501
8
105.612542
11.044638
#DATA
6000.000000	16.814985
5998.000000	16.849135
5996.000000	16.881150
5994.000000	16.913245
5992.000000	16.945869
5990.000000	16.979414
5988.000000	17.013226
5986.000000	17.048040
5984.000000	17.082106
5982.000000	17.114553
5980.000000	17.146882
5978.000000	17.180338
5976.000000	17.214866
5974.000000	17.249444
5972.000000	17.282651
5970.000000	17.316424
5968.000000	17.350690
5966.000000	17.385076
5964.000000	17.419541
5962.000000	17.454261
5960.000000	17.488590
5958.000000	17.523244
5956.000000	17.557982
5954.000000	17.593281
5952.000000	17.627901
5950.000000	17.661805
5948.000000	17.694850
5946.000000	17.728658
5944.000000	17.762757
5942.000000	17.797037
5940.000000	17.831265
5938.000000	17.865209
5936.000000	17.899079
5934.000000	17.932824
5932.000000	17.966594
5930.000000	18.001490
5928.000000	18.036560
5926.000000	18.071487
5924.000000	18.106318
5922.000000	18.142379
5920.000000	18.178740
5918.000000	18.214633
5916.000000	18.249397
5914.000000	18.284648
5912.000000	18.321358
5910.000000	18.359404
5908.000000	18.397022
5906.000000	18.434872
5904.000000	18.471950
5902.000000	18.509936
5900.000000	18.547156
5898.000000	18.583757
5896.000000	18.619373
5894.000000	18.654531
5892.000000	18.689639
5890.000000	18.725702
5888.000000	18.762313
5886.000000	18.799362
5884.000000	18.835623
5882.000000	18.872041
5880.000000	18.907828
5878.000000	18.944150
5876.000000	18.980187
5874.000000	19.017567
5872.000000	19.055629
5870.000000	19.093307
5868.000000	19.130390
5866.000000	19.167458
5864.000000	19.204154
5862.000000	19.241455
5860.000000	19.278923
5858.000000	19.317354
5856.000000	19.355857
5854.000000	19.394258
5852.000000	19.433302
5850.000000	19.473425
5848.000000	19.513277
5846.000000	19.552978
5844.000000	19.592607
5842.000000	19.633966
5840.000000	19.675637
5838.000000	19.717266
5836.000000	19.758379
5834.000000	19.800042
5832.000000	19.841726
5830.000000	19.883754
5828.000000	19.925564
5826.000000	19.968653
5824.000000	20.010500
5822.000000	20.051629
5820.000000	20.091240
5818.000000	20.130892
5816.000000	20.171604
5814.000000	20.213017
5812.000000	20.254516
5810.000000	20.296495
5808.000000	20.337709
5806.000000	20.378852
5804.000000	20.419341
5802.000000	20.460273
5800.000000	20.501150
5798.000000	20.541962
5796.000000	20.581751
5794.000000	20.623134
5792.000000	20.664973
5790.000000	20.706280
5788.000000	20.747291
5786.000000	20.788673
5784.000000	20.831261
5782.000000	20.874321
5780.000000	20.915874
5778.000000	20.957640
5776.000000	20.999264
5774.000000	21.041872
5772.000000	21.084552
5770.000000	21.127202
5768.000000	21.169657
5766.000000	21.212767
5764.000000	21.255414
5762.000000	21.297763
5760.000000	21.338968
5758.000000	21.380709
5756.000000	21.422339
5754.000000	21.464266
5752.000000	21.506267
5750.000000	21.548405
5748.000000	21.590569
5746.000000	21.633237
5744.000000	21.675656
5742.000000	21.717671
5740.000000	21.757105
5738.000000	21.797052
5736.000000	21.837996
5734.000000	21.879617
5732.000000	21.920057
5730.000000	21.960724
5728.000000	22.001296
5726.000000	22.042558
5724.000000	22.083205
5722.000000	22.125423
5720.000000	22.169287
5718.000000	22.214063
5716.000000	22.258100
5714.000000	22.301325
5712.000000	22.343893
5710.000000	22.387151
5708.000000	22.431775
5706.000000	22.476730
5704.000000	22.521584
5702.000000	22.566309
5700.000000	22.610151
5698.000000	22.655012
5696.000000	22.699612
5694.000000	22.744999
5692.000000	22.789908
5690.000000	22.835409
5688.000000	22.881210
5686.000000	22.927430
5684.000000	22.972972
5682.000000	23.018662
5680.000000	23.064355
5678.000000	23.110130
5676.000000	23.155442
5674.000000	23.200217
5672.000000	23.245196
5670.000000	23.291847
5668.000000	23.338626
5666.000000	23.385480
5664.000000	23.430787
5662.000000	23.476053
5660.000000	23.521396
5658.000000	23.567661
5656.000000	23.613592
5654.000000	23.660223
5652.000000	23.706062
5650.000000	23.751237
5648.000000	23.795839
5646.000000	23.841839
5644.000000	23.888074
5642.000000	23.934425
5640.000000	23.979790
5638.000000	24.026278
5636.000000	24.071990
5634.000000	24.116781
5632.000000	24.161608
5630.000000	24.208242
5628.000000	24.254924
5626.000000	24.300527
5624.000000	24.344915
5622.000000	24.390999
5620.000000	24.438302
5618.000000	24.485281
5616.000000	24.530677
5614.000000	24.575847
5612.000000	24.620526
5610.000000	24.666303
5608.000000	24.711926
5606.000000	24.758240
5604.000000	24.803528
5602.000000	24.849566
5600.000000	24.896330
5598.000000	24.943929
5596.000000	24.991292
5594.000000	25.039126
5592.000000	25.086705
5590.000000	25.134152
5588.000000	25.179760
5586.000000	25.225242
5584.000000	25.271634
5582.000000	25.319241
5580.000000	25.366569
5578.000000	25.413504
5576.000000	25.461396
5574.000000	25.511110
5572.000000	25.559692
5570.000000	25.608010
5568.000000	25.654900
5566.000000	25.702838
5564.000000	25.751494
5562.000000	25.801396
5560.000000	25.850441
5558.000000	25.898072
5556.000000	25.943252
5554.000000	25.989370
5552.000000	26.035857
5550.000000	26.084054
5548.000000	26.132700
5546.000000	26.181179
5544.000000	26.229218
5542.000000	26.277453
5540.000000	26.324229
5538.000000	26.371552
5536.000000	26.419760
5534.000000	26.470070
5532.000000	26.519319
5530.000000	26.566689
5528.000000	26.613194
5526.000000	26.659537
5524.000000	26.705829
5522.000000	26.753470
5520.000000	26.801337
5518.000000	26.849577
5516.000000	26.897576
5514.000000	26.946923
5512.000000	26.994061
5510.000000	27.037682
5508.000000	27.081428
5506.000000	27.129709
5504.000000	27.181260
5502.000000	27.231776
5500.000000	27.280497
5498.000000	27.327644
5496.000000	27.369607
5494.000000	27.410334
5492.000000	27.454701
5490.000000	27.507537
5488.000000	27.564621
5486.000000	27.622236
5484.000000	27.676944
5482.000000	27.727743
5480.000000	27.769854
5478.000000	27.805659
5476.000000	27.846584
5474.000000	27.900748
5472.000000	27.960540
5470.000000	28.014212
5468.000000	28.061367
5466.000000	28.107401
5464.000000	28.152015
5462.000000	28.198858
5460.000000	28.250700
5458.000000	28.307931
5456.000000	28.364632
5454.000000	28.415396
5452.000000	28.457605
5450.000000	28.494167
5448.000000	28.531359
5446.000000	28.575922
5444.000000	28.624053
5442.000000	28.679388
5440.000000	28.735499
5438.000000	28.786261
5436.000000	28.832371
5434.000000	28.877912
5432.000000	28.922262
5430.000000	28.968502
5428.000000	29.023582
5426.000000	29.090972
5424.000000	29.156384
5422.000000	29.212878
5420.000000	29.261573
5418.000000	29.296132
5416.000000	29.319849
5414.000000	29.349235
5412.000000	29.397028
5410.000000	29.463910
5408.000000	29.532360
5406.000000	29.595738
5404.000000	29.651396
5402.000000	29.703525
5400.000000	29.749967
5398.000000	29.786655
5396.000000	29.819189
5394.000000	29.865801
5392.000000	29.927645
5390.000000	29.989380
5388.000000	30.037090
5386.000000	30.084360
5384.000000	30.141817
5382.000000	30.199900
5380.000000	30.240755
5378.000000	30.275680
5376.000000	30.323928
5374.000000	30.390696
5372.000000	30.459252
5370.000000	30.519380
5368.000000	30.569072
5366.000000	30.614490
5364.000000	30.662767
5362.000000	30.718601
5360.000000	30.774330
5358.000000	30.817777
5356.000000	30.848808
5354.000000	30.885865
5352.000000	30.937444
5350.000000	30.994439
5348.000000	31.034910
5346.000000	31.071106
5344.000000	31.119102
5342.000000	31.172356
5340.000000	31.219987
5338.000000	31.271408
5336.000000	31.337206
5334.000000	31.406833
5332.000000	31.463041
5330.000000	31.508448
5328.000000	31.556256
5326.000000	31.613912
5324.000000	31.677863
5322.000000	31.737800
5320.000000	31.791132
5318.000000	31.842138
5316.000000	31.891796
5314.000000	31.942503
5312.000000	31.989334
5310.000000	32.031787
5308.000000	32.077329
5306.000000	32.132355
5304.000000	32.190504
5302.000000	32.245284
5300.000000	32.297708
5298.000000	32.352292
5296.000000	32.404631
5294.000000	32.448923
5292.000000	32.490297
5290.000000	32.539151
5288.000000	32.594879
5286.000000	32.652139
5284.000000	32.706399
5282.000000	32.761712
5280.000000	32.817413
5278.000000	32.874659
5276.000000	32.930658
5274.000000	32.982404
5272.000000	33.028084
5270.000000	33.073154
5268.000000	33.113383
5266.000000	33.151180
5264.000000	33.195836
5262.000000	33.258072
5260.000000	33.325837
5258.000000	33.380399
5256.000000	33.426961
5254.000000	33.478405
5252.000000	33.528210
5250.000000	33.570245
5248.000000	33.612136
5246.000000	33.667917
5244.000000	33.734627
5242.000000	33.803087
5240.000000	33.866630
5238.000000	33.921299
5236.000000	33.969114
5234.000000	34.015080
5232.000000	34.064423
5230.000000	34.112917
5228.000000	34.154811
5226.000000	34.199661
5224.000000	34.256818
5222.000000	34.321400
5220.000000	34.381043
5218.000000	34.438125
5216.000000	34.495496
5214.000000	34.549144
5212.000000	34.590800
5210.000000	34.621638
5208.000000	34.656176
5206.000000	34.712944
5204.000000	34.786693
5202.000000	34.857290
5200.000000	34.912595
5198.000000	34.964088
5196.000000	35.020514
5194.000000	35.079976
5192.000000	35.134590
5190.000000	35.185011
5188.000000	35.233437
5186.000000	35.286073
5184.000000	35.343100
5182.000000	35.402814
5180.000000	35.459978
5178.000000	35.516279
5176.000000	35.572527
5174.000000	35.628523
5172.000000	35.683111
5170.000000	35.738105
5168.000000	35.791789
5166.000000	35.844878
5164.000000	35.898244
5162.000000	35.953306
5160.000000	36.007300
5158.000000	36.061315
5156.000000	36.117022
5154.000000	36.174139
5152.000000	36.230258
5150.000000	36.285576
5148.000000	36.339998
5146.000000	36.394409
5144.000000	36.447195
5142.000000	36.501000
5140.000000	36.556563
5138.000000	36.613546
5136.000000	36.667389
5134.000000	36.720165
5132.000000	36.774021
5130.000000	36.829787
5128.000000	36.884820
5126.000000	36.940237
5124.000000	36.994741
5122.000000	37.048593
5120.000000	37.102164
5118.000000	37.156720
5116.000000	37.210718
5114.000000	37.265282
5112.000000	37.321374
5110.000000	37.378616
5108.000000	37.433344
5106.000000	37.487257
5104.000000	37.542493
5102.000000	37.600147
5100.000000	37.656616
5098.000000	37.711587
5096.000000	37.766657
5094.000000	37.824337
5092.000000	37.882475
5090.000000	37.939907
5088.000000	37.995832
5086.000000	38.052640
5084.000000	38.109444
5082.000000	38.167001
5080.000000	38.223948
5078.000000	38.281620
5076.000000	38.338488
5074.000000	38.395164
5072.000000	38.451758
5070.000000	38.508973
5068.000000	38.566093
5066.000000	38.623716
5064.000000	38.681166
5062.000000	38.738174
5060.000000	38.794135
5058.000000	38.850806
5056.000000	38.906495
5054.000000	38.962212
5052.000000	39.018300
5050.000000	39.075537
5048.000000	39.131719
5046.000000	39.187770
5044.000000	39.243590
5042.000000	39.300201
5040.000000	39.356084
5038.000000	39.412346
5036.000000	39.467882
5034.000000	39.523812
5032.000000	39.579020
5030.000000	39.634955
5028.000000	39.691414
5026.000000	39.749553
5024.000000	39.807531
5022.000000	39.864461
5020.000000	39.920058
5018.000000	39.976468
5016.000000	40.031890
5014.000000	40.087516
5012.000000	40.144557
5010.000000	40.203980
5008.000000	40.261816
5006.000000	40.318911
5004.000000	40.375389
5002.000000	40.432925
5000.000000	40.491049
4998.000000	40.550170
4996.000000	40.608194
4994.000000	40.666147
4992.000000	40.723642
4990.000000	40.781847
4988.000000	40.840039
4986.000000	40.899256
4984.000000	40.957891
4982.000000	41.016666
4980.000000	41.075646
4978.000000	41.135557
4976.000000	41.194299
4974.000000	41.252095
4972.000000	41.308750
4970.000000	41.366139
4968.000000	41.424170
4966.000000	41.483334
4964.000000	41.542022
4962.000000	41.600398
4960.000000	41.657718
4958.000000	41.715556
4956.000000	41.772262
4954.000000	41.829062
4952.000000	41.885433
4950.000000	41.943119
4948.000000	42.000605
4946.000000	42.058804
4944.000000	42.116422
4942.000000	42.173832
4940.000000	42.229975
4938.000000	42.286416
4936.000000	42.342114
4934.000000	42.399289
4932.000000	42.456574
4930.000000	42.514365
4928.000000	42.571029
4926.000000	42.627846
4924.000000	42.683653
4922.000000	42.741263
4920.000000	42.799942
4918.000000	42.858615
4916.000000	42.915683
4914.000000	42.973570
4912.000000	43.031200
4910.000000	43.089888
4908.000000	43.149073
4906.000000	43.208527
4904.000000	43.266294
4902.000000	43.325621
4900.000000	43.385724
4898.000000	43.445156
4896.000000	43.503107
4894.000000	43.562306
4892.000000	43.622649
4890.000000	43.684125
4888.000000	43.744295
4886.000000	43.803464
4884.000000	43.861603
4882.000000	43.921013
4880.000000	43.980228
4878.000000	44.040215
4876.000000	44.099679
4874.000000	44.159174
4872.000000	44.218118
4870.000000	44.277800
4868.000000	44.336752
4866.000000	44.395640
4864.000000	44.454288
4862.000000	44.513636
4860.000000	44.571412
4858.000000	44.628459
4856.000000	44.685497
4854.000000	44.744431
4852.000000	44.803037
4850.000000	44.861469
4848.000000	44.918900
4846.000000	44.976558
4844.000000	45.033500
4842.000000	45.091938
4840.000000	45.151067
4838.000000	45.210098
4836.000000	45.266899
4834.000000	45.324837
4832.000000	45.383947
4830.000000	45.443294
4828.000000	45.501173
4826.000000	45.559381
4824.000000	45.616136
4822.000000	45.673508
4820.000000	45.732256
4818.000000	45.791713
4816.000000	45.849876
4814.000000	45.910443
4812.000000	45.971459
4810.000000	46.032430
4808.000000	46.091797
4806.000000	46.151461
4804.000000	46.210817
4802.000000	46.270848
4800.000000	46.329774
4798.000000	46.389458
4796.000000	46.450093
4794.000000	46.511901
4792.000000	46.573299
4790.000000	46.634494
4788.000000	46.694568
4786.000000	46.755224
4784.000000	46.814816
4782.000000	46.875086
4780.000000	46.936077
4778.000000	46.997381
4776.000000	47.056879
4774.000000	47.116251
4772.000000	47.175416
4770.000000	47.235434
4768.000000	47.295983
4766.000000	47.356254
4764.000000	47.414632
4762.000000	47.473454
4760.000000	47.532690
4758.000000	47.592232
4756.000000	47.650588
4754.000000	47.709167
4752.000000	47.767517
4750.000000	47.827480
4748.000000	47.887017
4746.000000	47.944418
4744.000000	48.000601
4742.000000	48.059676
4740.000000	48.119527
4738.000000	48.178485
4736.000000	48.236156
4734.000000	48.294359
4732.000000	48.351807
4730.000000	48.410088
4728.000000	48.469301
4726.000000	48.530613
4724.000000	48.591320
4722.000000	48.651843
4720.000000	48.711877
4718.000000	48.772408
4716.000000	48.832966
4714.000000	48.895460
4712.000000	48.957663
4710.000000	49.019109
4708.000000	49.080301
4706.000000	49.143468
4704.000000	49.207145
4702.000000	49.271851
4700.000000	49.335972
4698.000000	49.399494
4696.000000	49.460794
4694.000000	49.522278
4692.000000	49.583716
4690.000000	49.645651
4688.000000	49.706738
4686.000000	49.768797
4684.000000	49.830280
4682.000000	49.892274
4680.000000	49.955229
4678.000000	50.018838
4676.000000	50.079368
4674.000000	50.138720
4672.000000	50.199346
4670.000000	50.262106
4668.000000	50.324173
4666.000000	50.385595
4664.000000	50.446058
4662.000000	50.507389
4660.000000	50.569280
4658.000000	50.632057
4656.000000	50.693403
4654.000000	50.753714
4652.000000	50.813083
4650.000000	50.873870
4648.000000	50.934826
4646.000000	50.996724
4644.000000	51.058361
4642.000000	51.120400
4640.000000	51.181477
4638.000000	51.243001
4636.000000	51.304580
4634.000000	51.367145
4632.000000	51.428352
4630.000000	51.488847
4628.000000	51.549255
4626.000000	51.610637
4624.000000	51.671696
4622.000000	51.734295
4620.000000	51.797261
4618.000000	51.859999
4616.000000	51.922248
4614.000000	51.987007
4612.000000	52.051996
4610.000000	52.116952
4608.000000	52.181665
4606.000000	52.247584
4604.000000	52.312562
4602.000000	52.378262
4600.000000	52.443903
4598.000000	52.509487
4596.000000	52.574056
4594.000000	52.638714
4592.000000	52.702174
4590.000000	52.766734
4588.000000	52.831804
4586.000000	52.896945
4584.000000	52.960583
4582.000000	53.024448
4580.000000	53.088340
4578.000000	53.153254
4576.000000	53.217692
4574.000000	53.282834
4572.000000	53.346934
4570.000000	53.410413
4568.000000	53.474070
4566.000000	53.539143
4564.000000	53.602487
4562.000000	53.665005
4560.000000	53.727959
4558.000000	53.791862
4556.000000	53.854221
4554.000000	53.916693
4552.000000	53.979507
4550.000000	54.043382
4548.000000	54.106840
4546.000000	54.169888
4544.000000	54.231355
4542.000000	54.294007
4540.000000	54.356570
4538.000000	54.420071
4536.000000	54.483235
4534.000000	54.546167
4532.000000	54.607759
4530.000000	54.671241
4528.000000	54.735800
4526.000000	54.801412
4524.000000	54.865077
4522.000000	54.928330
4520.000000	54.992266
4518.000000	55.057485
4516.000000	55.122029
4514.000000	55.187530
4512.000000	55.251953
4510.000000	55.316613
4508.000000	55.382813
4506.000000	55.450401
4504.000000	55.516143
4502.000000	55.581510
4500.000000	55.646738
4498.000000	55.712764
4496.000000	55.777776
4494.000000	55.843033
4492.000000	55.908413
4490.000000	55.974808
4488.000000	56.040755
4486.000000	56.106580
4484.000000	56.170933
4482.000000	56.236188
4480.000000	56.301670
4478.000000	56.366775
4476.000000	56.429775
4474.000000	56.492491
4472.000000	56.555049
4470.000000	56.618700
4468.000000	56.681373
4466.000000	56.743832
4464.000000	56.806761
4462.000000	56.871002
4460.000000	56.933032
4458.000000	56.994443
4456.000000	57.056044
4454.000000	57.118780
4452.000000	57.180758
4450.000000	57.243311
4448.000000	57.305308
4446.000000	57.368043
4444.000000	57.430643
4442.000000	57.493888
4440.000000	57.555822
4438.000000	57.618372
4436.000000	57.681551
4434.000000	57.745225
4432.000000	57.807758
4430.000000	57.871348
4428.000000	57.935295
4426.000000	57.999522
4424.000000	58.062420
4422.000000	58.126052
4420.000000	58.190508
4418.000000	58.255348
4416.000000	58.319058
4414.000000	58.383223
4412.000000	58.447817
4410.000000	58.514022
4408.000000	58.579119
4406.000000	58.642901
4404.000000	58.707272
4402.000000	58.773407
4400.000000	58.837913
4398.000000	58.901348
4396.000000	58.964573
4394.000000	59.028811
4392.000000	59.092418
4390.000000	59.156014
4388.000000	59.218642
4386.000000	59.280746
4384.000000	59.341438
4382.000000	59.402770
4380.000000	59.463624
4378.000000	59.524208
4376.000000	59.584419
4374.000000	59.645384
4372.000000	59.704754
4370.000000	59.764094
4368.000000	59.824116
4366.000000	59.885287
4364.000000	59.945491
4362.000000	60.006029
4360.000000	60.067495
4358.000000	60.130072
4356.000000	60.192113
4354.000000	60.256237
4352.000000	60.320951
4350.000000	60.384995
4348.000000	60.447929
4346.000000	60.511470
4344.000000	60.574125
4342.000000	60.637322
4340.000000	60.700257
4338.000000	60.764403
4336.000000	60.828932
4334.000000	60.893284
4332.000000	60.956685
4330.000000	61.021607
4328.000000	61.086679
4326.000000	61.152334
4324.000000	61.218047
4322.000000	61.284910
4320.000000	61.352061
4318.000000	61.419901
4316.000000	61.486810
4314.000000	61.554375
4312.000000	61.622440
4310.000000	61.690810
4308.000000	61.757489
4306.000000	61.824201
4304.000000	61.890361
4302.000000	61.956628
4300.000000	62.022464
4298.000000	62.088028
4296.000000	62.152754
4294.000000	62.218741
4292.000000	62.284536
4290.000000	62.349085
4288.000000	62.410816
4286.000000	62.472481
4284.000000	62.534333
4282.000000	62.595662
4280.000000	62.655238
4278.000000	62.714693
4276.000000	62.773632
4274.000000	62.834150
4272.000000	62.894070
4270.000000	62.952705
4268.000000	63.011116
4266.000000	63.072156
4264.000000	63.133325
4262.000000	63.195148
4260.000000	63.257792
4258.000000	63.321918
4256.000000	63.385088
4254.000000	63.447528
4252.000000	63.510589
4250.000000	63.576525
4248.000000	63.641211
4246.000000	63.704388
4244.000000	63.767666
4242.000000	63.833337
4240.000000	63.898504
4238.000000	63.962501
4236.000000	64.026096
4234.000000	64.090795
4232.000000	64.155138
4230.000000	64.220706
4228.000000	64.285745
4226.000000	64.350468
4224.000000	64.414822
4222.000000	64.479683
4220.000000	64.543436
4218.000000	64.606652
4216.000000	64.670134
4214.000000	64.736430
4212.000000	64.803293
4210.000000	64.869673
4208.000000	64.935141
4206.000000	65.000888
4204.000000	65.067626
4202.000000	65.136953
4200.000000	65.205639
4198.000000	65.273689
4196.000000	65.341504
4194.000000	65.410311
4192.000000	65.479288
4190.000000	65.548277
4188.000000	65.615857
4186.000000	65.682687
4184.000000	65.748547
4182.000000	65.815541
4180.000000	65.882670
4178.000000	65.949554
4176.000000	66.014747
4174.000000	66.079360
4172.000000	66.143624
4170.000000	66.208083
4168.000000	66.271671
4166.000000	66.335607
4164.000000	66.399285
4162.000000	66.463669
4160.000000	66.527887
4158.000000	66.592176
4156.000000	66.656549
4154.000000	66.721950
4152.000000	66.786611
4150.000000	66.850800
4148.000000	66.914962
4146.000000	66.981269
4144.000000	67.047140
4142.000000	67.111854
4140.000000	67.176892
4138.000000	67.243563
4136.000000	67.309030
4134.000000	67.374707
4132.000000	67.441075
4130.000000	67.508422
4128.000000	67.575043
4126.000000	67.641319
4124.000000	67.706617
4122.000000	67.772154
4120.000000	67.837192
4118.000000	67.903428
4116.000000	67.970503
4114.000000	68.038187
4112.000000	68.104632
4110.000000	68.169857
4108.000000	68.232123
4106.000000	68.294437
4104.000000	68.358509
4102.000000	68.424103
4100.000000	68.488911
4098.000000	68.553324
4096.000000	68.616956
4094.000000	68.682540
4092.000000	68.748346
4090.000000	68.813374
4088.000000	68.880293
4086.000000	68.952255
4084.000000	69.024423
4082.000000	69.093249
4080.000000	69.158880
4078.000000	69.225597
4076.000000	69.292478
4074.000000	69.359087
4072.000000	69.425428
4070.000000	69.491536
4068.000000	69.555764
4066.000000	69.620110
4064.000000	69.684424
4062.000000	69.748288
4060.000000	69.812031
4058.000000	69.878559
4056.000000	69.945602
4054.000000	70.012085
4052.000000	70.077198
4050.000000	70.141391
4048.000000	70.202425
4046.000000	70.261972
4044.000000	70.325646
4042.000000	70.396128
4040.000000	70.466771
4038.000000	70.534691
4036.000000	70.600581
4034.000000	70.666763
4032.000000	70.733103
4030.000000	70.801237
4028.000000	70.867526
4026.000000	70.932819
4024.000000	71.001021
4022.000000	71.069203
4020.000000	71.134964
4018.000000	71.205047
4016.000000	71.276932
4014.000000	71.346761
4012.000000	71.413414
4010.000000	71.478407
4008.000000	71.546294
4006.000000	71.618948
4004.000000	71.690174
4002.000000	71.759833
4000.000000	71.827053
3998.000000	71.890327
3996.000000	71.951229
3994.000000	72.013945
3992.000000	72.077370
3990.000000	72.144318
3988.000000	72.214072
3986.000000	72.279233
3984.000000	72.338873
3982.000000	72.401742
3980.000000	72.465452
3978.000000	72.522760
3976.000000	72.575617
3974.000000	72.635028
3972.000000	72.701208
3970.000000	72.769870
3968.000000	72.838663
3966.000000	72.900887
3964.000000	72.949623
3962.000000	73.000969
3960.000000	73.065496
3958.000000	73.132957
3956.000000	73.194813
3954.000000	73.245551
3952.000000	73.273891
3950.000000	73.298607
3948.000000	73.357291
3946.000000	73.426697
3944.000000	73.472593
3942.000000	73.547504
3940.000000	73.661592
3938.000000	73.753915
3936.000000	73.782571
3934.000000	73.763840
3932.000000	73.791952
3930.000000	73.904777
3928.000000	74.001850
3926.000000	74.043633
3924.000000	74.096295
3922.000000	74.147380
3920.000000	74.143515
3918.000000	74.165663
3916.000000	74.312291
3914.000000	74.507807
3912.000000	74.636077
3910.000000	74.684847
3908.000000	74.600435
3906.000000	74.354574
3904.000000	74.146373
3902.000000	74.157156
3900.000000	74.378111
3898.000000	74.724701
3896.000000	74.973238
3894.000000	74.936196
3892.000000	74.837220
3890.000000	74.909930
3888.000000	74.897011
3886.000000	74.822290
3884.000000	74.964506
3882.000000	75.127464
3880.000000	75.265707
3878.000000	75.449395
3876.000000	75.488185
3874.000000	75.355051
3872.000000	75.102196
3870.000000	75.011451
3868.000000	75.230649
3866.000000	75.407481
3864.000000	75.530567
3862.000000	75.774484
3860.000000	75.972808
3858.000000	75.690374
3856.000000	74.702586
3854.000000	74.020807
3852.000000	74.637676
3850.000000	75.786469
3848.000000	76.412832
3846.000000	76.491565
3844.000000	76.375494
3842.000000	76.159044
3840.000000	75.757954
3838.000000	75.565958
3836.000000	75.921127
3834.000000	76.389876
3832.000000	76.673185
3830.000000	76.883358
3828.000000	77.012002
3826.000000	77.025500
3824.000000	76.800729
3822.000000	76.518695
3820.000000	76.524300
3818.000000	76.505960
3816.000000	76.573253
3814.000000	77.112503
3812.000000	77.583706
3810.000000	77.505328
3808.000000	77.207045
3806.000000	77.175321
3804.000000	77.084418
3802.000000	76.887684
3800.000000	77.178368
3798.000000	77.663106
3796.000000	77.954031
3794.000000	78.186969
3792.000000	78.349002
3790.000000	78.421527
3788.000000	78.446875
3786.000000	78.457924
3784.000000	78.486568
3782.000000	78.475253
3780.000000	78.459267
3778.000000	78.587249
3776.000000	78.768711
3774.000000	78.805764
3772.000000	78.662383
3770.000000	78.565632
3768.000000	78.653954
3766.000000	78.807395
3764.000000	78.946731
3762.000000	78.956765
3760.000000	78.886231
3758.000000	78.928491
3756.000000	78.834674
3754.000000	78.249752
3752.000000	77.612488
3750.000000	77.628182
3748.000000	77.878417
3746.000000	77.656946
3744.000000	77.818657
3742.000000	78.738888
3740.000000	79.223464
3738.000000	78.969660
3736.000000	78.722985
3734.000000	78.837598
3732.000000	79.215735
3730.000000	79.654042
3728.000000	79.842850
3726.000000	79.863963
3724.000000	79.935867
3722.000000	80.060927
3720.000000	80.221167
3718.000000	80.358069
3716.000000	80.291952
3714.000000	79.922547
3712.000000	79.677012
3710.000000	79.930281
3708.000000	80.396958
3706.000000	80.675344
3704.000000	80.675038
3702.000000	80.647073
3700.000000	80.796261
3698.000000	80.970485
3696.000000	81.022505
3694.000000	80.887082
3692.000000	80.468863
3690.000000	79.996250
3688.000000	80.116284
3686.000000	80.786760
3684.000000	81.246064
3682.000000	81.295110
3680.000000	81.054540
3678.000000	80.467542
3676.000000	80.038148
3674.000000	80.202243
3672.000000	80.326991
3670.000000	80.456893
3668.000000	81.018359
3666.000000	81.542518
3664.000000	81.739088
3662.000000	81.772319
3660.000000	81.670549
3658.000000	81.410258
3656.000000	81.312262
3654.000000	81.331789
3652.000000	80.944261
3650.000000	80.492529
3648.000000	80.700263
3646.000000	81.344809
3644.000000	81.800957
3642.000000	81.954630
3640.000000	81.994501
3638.000000	81.999680
3636.000000	81.955996
3634.000000	81.829787
3632.000000	81.414570
3630.000000	80.884500
3628.000000	81.016744
3626.000000	81.650504
3624.000000	81.961306
3622.000000	81.790018
3620.000000	81.535401
3618.000000	81.576990
3616.000000	81.724234
3614.000000	81.707739
3612.000000	81.610955
3610.000000	81.543791
3608.000000	81.659810
3606.000000	81.925846
3604.000000	82.074381
3602.000000	82.062665
3600.000000	82.026391
3598.000000	81.994128
3596.000000	81.951245
3594.000000	81.963049
3592.000000	81.947176
3590.000000	81.747540
3588.000000	81.586838
3586.000000	81.728495
3584.000000	81.970117
3582.000000	82.076912
3580.000000	82.087410
3578.000000	82.083828
3576.000000	82.081873
3574.000000	82.079288
3572.000000	82.016580
3570.000000	81.804552
3568.000000	81.592678
3566.000000	81.641045
3564.000000	81.839717
3562.000000	81.954925
3560.000000	81.991911
3558.000000	82.013981
3556.000000	82.001076
3554.000000	81.949591
3552.000000	81.920798
3550.000000	81.904105
3548.000000	81.835716
3546.000000	81.786418
3544.000000	81.829875
3542.000000	81.898104
3540.000000	81.914233
3538.000000	81.882785
3536.000000	81.856366
3534.000000	81.848997
3532.000000	81.812981
3530.000000	81.741771
3528.000000	81.676083
3526.000000	81.627811
3524.000000	81.591613
3522.000000	81.584552
3520.000000	81.585596
3518.000000	81.568252
3516.000000	81.538054
3514.000000	81.492157
3512.000000	81.426099
3510.000000	81.364443
3508.000000	81.326324
3506.000000	81.265937
3504.000000	81.177521
3502.000000	81.129355
3500.000000	81.111914
3498.000000	81.069419
3496.000000	81.012569
3494.000000	80.965078
3492.000000	80.915130
3490.000000	80.853471
3488.000000	80.795392
3486.000000	80.751491
3484.000000	80.704484
3482.000000	80.662483
3480.000000	80.650422
3478.000000	80.654435
3476.000000	80.653624
3474.000000	80.655941
3472.000000	80.663986
3470.000000	80.668837
3468.000000	80.678493
3466.000000	80.707957
3464.000000	80.746805
3462.000000	80.782632
3460.000000	80.821402
3458.000000	80.862024
3456.000000	80.896983
3454.000000	80.926052
3452.000000	80.946342
3450.000000	80.945331
3448.000000	80.936663
3446.000000	80.962898
3444.000000	81.017400
3442.000000	81.080213
3440.000000	81.155475
3438.000000	81.240317
3436.000000	81.339693
3434.000000	81.462931
3432.000000	81.602897
3430.000000	81.746374
3428.000000	81.891049
3426.000000	82.029354
3424.000000	82.148279
3422.000000	82.251522
3420.000000	82.361297
3418.000000	82.477699
3416.000000	82.578508
3414.000000	82.660542
3412.000000	82.733570
3410.000000	82.799407
3408.000000	82.860463
3406.000000	82.917484
3404.000000	82.966160
3402.000000	83.009758
3400.000000	83.063237
3398.000000	83.138451
3396.000000	83.221169
3394.000000	83.288185
3392.000000	83.352239
3390.000000	83.433897
3388.000000	83.513750
3386.000000	83.576187
3384.000000	83.634650
3382.000000	83.694848
3380.000000	83.751163
3378.000000	83.802784
3376.000000	83.851822
3374.000000	83.897405
3372.000000	83.932977
3370.000000	83.959632
3368.000000	83.996541
3366.000000	84.049019
3364.000000	84.103851
3362.000000	84.153428
3360.000000	84.199280
3358.000000	84.241195
3356.000000	84.282065
3354.000000	84.324788
3352.000000	84.363963
3350.000000	84.403745
3348.000000	84.449386
3346.000000	84.494079
3344.000000	84.533929
3342.000000	84.571003
3340.000000	84.604924
3338.000000	84.638365
3336.000000	84.681396
3334.000000	84.729896
3332.000000	84.773275
3330.000000	84.810020
3328.000000	84.842758
3326.000000	84.876093
3324.000000	84.915445
3322.000000	84.957443
3320.000000	84.996597
3318.000000	85.032011
3316.000000	85.064391
3314.000000	85.095309
3312.000000	85.123993
3310.000000	85.146657
3308.000000	85.166855
3306.000000	85.194454
3304.000000	85.239997
3302.000000	85.293183
3300.000000	85.336458
3298.000000	85.370408
3296.000000	85.400846
3294.000000	85.428531
3292.000000	85.459864
3290.000000	85.503314
3288.000000	85.550958
3286.000000	85.592341
3284.000000	85.629274
3282.000000	85.666753
3280.000000	85.703106
3278.000000	85.735514
3276.000000	85.766665
3274.000000	85.800426
3272.000000	85.837541
3270.000000	85.882333
3268.000000	85.933814
3266.000000	85.980714
3264.000000	86.024208
3262.000000	86.067498
3260.000000	86.109784
3258.000000	86.150011
3256.000000	86.191327
3254.000000	86.239854
3252.000000	86.293413
3250.000000	86.341646
3248.000000	86.382139
3246.000000	86.422992
3244.000000	86.475081
3242.000000	86.531038
3240.000000	86.583027
3238.000000	86.631836
3236.000000	86.676306
3234.000000	86.716566
3232.000000	86.765365
3230.000000	86.823203
3228.000000	86.878455
3226.000000	86.931003
3224.000000	86.979796
3222.000000	87.021853
3220.000000	87.065789
3218.000000	87.116435
3216.000000	87.165231
3214.000000	87.212791
3212.000000	87.263201
3210.000000	87.316123
3208.000000	87.376086
3206.000000	87.440702
3204.000000	87.509079
3202.000000	87.578576
3200.000000	87.645230
3198.000000	87.713763
3196.000000	87.789561
3194.000000	87.866699
3192.000000	87.941105
3190.000000	88.013721
3188.000000	88.083680
3186.000000	88.151117
3184.000000	88.221978
3182.000000	88.294163
3180.000000	88.361467
3178.000000	88.430059
3176.000000	88.507278
3174.000000	88.584098
3172.000000	88.656756
3170.000000	88.727854
3168.000000	88.802067
3166.000000	88.878578
3164.000000	88.955147
3162.000000	89.031988
3160.000000	89.111286
3158.000000	89.190459
3156.000000	89.265603
3154.000000	89.333970
3152.000000	89.404967
3150.000000	89.489309
3148.000000	89.575711
3146.000000	89.654102
3144.000000	89.729068
3142.000000	89.801483
3140.000000	89.871334
3138.000000	89.942101
3136.000000	90.011823
3134.000000	90.077061
3132.000000	90.145485
3130.000000	90.214808
3128.000000	90.278765
3126.000000	90.338361
3124.000000	90.394729
3122.000000	90.444897
3120.000000	90.491429
3118.000000	90.539817
3116.000000	90.596086
3114.000000	90.662338
3112.000000	90.725956
3110.000000	90.777320
3108.000000	90.829399
3106.000000	90.888268
3104.000000	90.946333
3102.000000	91.002721
3100.000000	91.065238
3098.000000	91.131200
3096.000000	91.196357
3094.000000	91.264376
3092.000000	91.329781
3090.000000	91.389214
3088.000000	91.446939
3086.000000	91.499533
3084.000000	91.546684
3082.000000	91.586744
3080.000000	91.621542
3078.000000	91.660367
3076.000000	91.704536
3074.000000	91.738342
3072.000000	91.757024
3070.000000	91.764912
3068.000000	91.768744
3066.000000	91.783335
3064.000000	91.819973
3062.000000	91.870697
3060.000000	91.925315
3058.000000	91.979596
3056.000000	92.040205
3054.000000	92.105573
3052.000000	92.162415
3050.000000	92.211267
3048.000000	92.260731
3046.000000	92.303070
3044.000000	92.332688
3042.000000	92.357399
3040.000000	92.385049
3038.000000	92.406183
3036.000000	92.412915
3034.000000	92.408533
3032.000000	92.395278
3030.000000	92.365104
3028.000000	92.301419
3026.000000	92.193619
3024.000000	92.063206
3022.000000	91.945728
3020.000000	91.879369
3018.000000	91.904146
3016.000000	92.042654
3014.000000	92.276665
3012.000000	92.562639
3010.000000	92.845830
3008.000000	93.079364
3006.000000	93.242682
3004.000000	93.353985
3002.000000	93.435105
3000.000000	93.493913
2998.000000	93.534726
2996.000000	93.564384
2994.000000	93.583454
2992.000000	93.594096
2990.000000	93.595619
2988.000000	93.582546
2986.000000	93.548631
2984.000000	93.488957
2982.000000	93.399257
2980.000000	93.276561
2978.000000	93.110461
2976.000000	92.883077
2974.000000	92.575587
2972.000000	92.178199
2970.000000	91.693486
2968.000000	91.165859
2966.000000	90.677539
2964.000000	90.317716
2962.000000	90.144056
2960.000000	90.158823
2958.000000	90.302765
2956.000000	90.497291
2954.000000	90.682138
2952.000000	90.825077
2950.000000	90.896343
2948.000000	90.860379
2946.000000	90.694648
2944.000000	90.398126
2942.000000	89.984290
2940.000000	89.490307
2938.000000	88.975176
2936.000000	88.499449
2934.000000	88.075897
2932.000000	87.674767
2930.000000	87.281718
2928.000000	86.951524
2926.000000	86.787010
2924.000000	86.895844
2922.000000	87.318866
2920.000000	87.997410
2918.000000	88.815923
2916.000000	89.669702
2914.000000	90.475656
2912.000000	91.172914
2910.000000	91.730682
2908.000000	92.164822
2906.000000	92.514502
2904.000000	92.817478
2902.000000	93.092844
2900.000000	93.349043
2898.000000	93.588955
2896.000000	93.816569
2894.000000	94.032933
2892.000000	94.238163
2890.000000	94.426411
2888.000000	94.590175
2886.000000	94.719265
2884.000000	94.807600
2882.000000	94.849990
2880.000000	94.846669
2878.000000	94.792556
2876.000000	94.679225
2874.000000	94.498244
2872.000000	94.242266
2870.000000	93.881411
2868.000000	93.391996
2866.000000	92.812739
2864.000000	92.268153
2862.000000	91.912779
2860.000000	91.837881
2858.000000	92.007126
2856.000000	92.311070
2854.000000	92.669207
2852.000000	93.082221
2850.000000	93.590056
2848.000000	94.196372
2846.000000	94.820632
2844.000000	95.366888
2842.000000	95.800408
2840.000000	96.139519
2838.000000	96.410544
2836.000000	96.633723
2834.000000	96.817944
2832.000000	96.974461
2830.000000	97.109944
2828.000000	97.232357
2826.000000	97.342460
2824.000000	97.444271
2822.000000	97.538050
2820.000000	97.623807
2818.000000	97.701099
2816.000000	97.771752
2814.000000	97.835562
2812.000000	97.894314
2810.000000	97.947536
2808.000000	97.998319
2806.000000	98.045725
2804.000000	98.091460
2802.000000	98.135537
2800.000000	98.178388
2798.000000	98.219206
2796.000000	98.260138
2794.000000	98.300676
2792.000000	98.346121
2790.000000	98.400988
2788.000000	98.470234
2786.000000	98.551693
2784.000000	98.638254
2782.000000	98.720219
2780.000000	98.795818
2778.000000	98.862037
2776.000000	98.922702
2774.000000	98.980421
2772.000000	99.036278
2770.000000	99.088744
2768.000000	99.139540
2766.000000	99.187485
2764.000000	99.235747
2762.000000	99.283029
2760.000000	99.327922
2758.000000	99.370288
2756.000000	99.413063
2754.000000	99.454792
2752.000000	99.494845
2750.000000	99.530985
2748.000000	99.567295
2746.000000	99.603664
2744.000000	99.639039
2742.000000	99.672607
2740.000000	99.706944
2738.000000	99.739698
2736.000000	99.773167
2734.000000	99.806039
2732.000000	99.840141
2730.000000	99.874402
2728.000000	99.908669
2726.000000	99.940303
2724.000000	99.971972
2722.000000	100.002899
2720.000000	100.035134
2718.000000	100.065521
2716.000000	100.094696
2714.000000	100.121594
2712.000000	100.146744
2710.000000	100.169252
2708.000000	100.192207
2706.000000	100.216771
2704.000000	100.247202
2702.000000	100.283424
2700.000000	100.326962
2698.000000	100.373428
2696.000000	100.420426
2694.000000	100.464189
2692.000000	100.507645
2690.000000	100.549687
2688.000000	100.591661
2686.000000	100.631652
2684.000000	100.671100
2682.000000	100.706618
2680.000000	100.740882
2678.000000	100.773796
2676.000000	100.807370
2674.000000	100.838919
2672.000000	100.868601
2670.000000	100.896753
2668.000000	100.925950
2666.000000	100.954626
2664.000000	100.983379
2662.000000	101.010679
2660.000000	101.039463
2658.000000	101.069575
2656.000000	101.103337
2654.000000	101.140476
2652.000000	101.180616
2650.000000	101.219110
2648.000000	101.258603
2646.000000	101.297329
2644.000000	101.335700
2642.000000	101.370605
2640.000000	101.404257
2638.000000	101.437001
2636.000000	101.471660
2634.000000	101.505318
2632.000000	101.536972
2630.000000	101.564554
2628.000000	101.593104
2626.000000	101.620397
2624.000000	101.647727
2622.000000	101.674637
2620.000000	101.703379
2618.000000	101.729572
2616.000000	101.754323
2614.000000	101.777515
2612.000000	101.800981
2610.000000	101.822490
2608.000000	101.842628
2606.000000	101.859481
2604.000000	101.875408
2602.000000	101.887271
2600.000000	101.898104
2598.000000	101.905774
2596.000000	101.914221
2594.000000	101.928064
2592.000000	101.951838
2590.000000	101.984042
2588.000000	102.026481
2586.000000	102.076409
2584.000000	102.134701
2582.000000	102.196245
2580.000000	102.258666
2578.000000	102.316470
2576.000000	102.369333
2574.000000	102.416194
2572.000000	102.460240
2570.000000	102.498899
2568.000000	102.535044
2566.000000	102.568424
2564.000000	102.600568
2562.000000	102.630874
2560.000000	102.660777
2558.000000	102.687528
2556.000000	102.714724
2554.000000	102.740756
2552.000000	102.766978
2550.000000	102.791907
2548.000000	102.817981
2546.000000	102.842031
2544.000000	102.867852
2542.000000	102.893464
2540.000000	102.920089
2538.000000	102.945748
2536.000000	102.972138
2534.000000	102.996713
2532.000000	103.022921
2530.000000	103.048063
2528.000000	103.073890
2526.000000	103.097959
2524.000000	103.122692
2522.000000	103.144621
2520.000000	103.167313
2518.000000	103.190440
2516.000000	103.214561
2514.000000	103.236962
2512.000000	103.260184
2510.000000	103.281866
2508.000000	103.302992
2506.000000	103.321015
2504.000000	103.341355
2502.000000	103.362534
2500.000000	103.385454
2498.000000	103.408974
2496.000000	103.435723
2494.000000	103.462008
2492.000000	103.489047
2490.000000	103.513109
2488.000000	103.537185
2486.000000	103.561396
2484.000000	103.587938
2482.000000	103.613343
2480.000000	103.638384
2478.000000	103.661179
2476.000000	103.684162
2474.000000	103.704789
2472.000000	103.724677
2470.000000	103.742324
2468.000000	103.760432
2466.000000	103.775288
2464.000000	103.791215
2462.000000	103.807120
2460.000000	103.824126
2458.000000	103.838736
2456.000000	103.854839
2454.000000	103.871773
2452.000000	103.890150
2450.000000	103.905767
2448.000000	103.921791
2446.000000	103.935798
2444.000000	103.950868
2442.000000	103.964911
2440.000000	103.980924
2438.000000	103.994143
2436.000000	104.008032
2434.000000	104.021655
2432.000000	104.034723
2430.000000	104.043914
2428.000000	104.054054
2426.000000	104.066003
2424.000000	104.083190
2422.000000	104.098672
2420.000000	104.113480
2418.000000	104.124325
2416.000000	104.135341
2414.000000	104.145079
2412.000000	104.156233
2410.000000	104.167903
2408.000000	104.181322
2406.000000	104.193308
2404.000000	104.208181
2402.000000	104.222128
2400.000000	104.237738
2398.000000	104.253574
2396.000000	104.271385
2394.000000	104.287543
2392.000000	104.305776
2390.000000	104.320999
2388.000000	104.333268
2386.000000	104.336275
2384.000000	104.326270
2382.000000	104.292996
2380.000000	104.228808
2378.000000	104.120313
2376.000000	103.967558
2374.000000	103.770042
2372.000000	103.540573
2370.000000	103.296416
2368.000000	103.065210
2366.000000	102.871245
2364.000000	102.743124
2362.000000	102.698620
2360.000000	102.753034
2358.000000	102.902902
2356.000000	103.143136
2354.000000	103.455901
2352.000000	103.804217
2350.000000	104.055220
2348.000000	104.041281
2346.000000	103.815134
2344.000000	103.575263
2342.000000	103.400207
2340.000000	103.299275
2338.000000	103.254381
2336.000000	103.253771
2334.000000	103.284663
2332.000000	103.344394
2330.000000	103.428299
2328.000000	103.534237
2326.000000	103.648991
2324.000000	103.770005
2322.000000	103.887976
2320.000000	104.000819
2318.000000	104.103116
2316.000000	104.196780
2314.000000	104.278137
2312.000000	104.349694
2310.000000	104.408109
2308.000000	104.457449
2306.000000	104.496016
2304.000000	104.530694
2302.000000	104.558771
2300.000000	104.583640
2298.000000	104.602465
2296.000000	104.620554
2294.000000	104.634076
2292.000000	104.647246
2290.000000	104.658893
2288.000000	104.672212
2286.000000	104.679541
2284.000000	104.684508
2282.000000	104.684122
2280.000000	104.683158
2278.000000	104.678748
2276.000000	104.673217
2274.000000	104.665084
2272.000000	104.659599
2270.000000	104.653127
2268.000000	104.649111
2266.000000	104.644568
2264.000000	104.641311
2262.000000	104.635153
2260.000000	104.631909
2258.000000	104.628340
2256.000000	104.628985
2254.000000	104.630334
2252.000000	104.634128
2250.000000	104.637494
2248.000000	104.645447
2246.000000	104.652317
2244.000000	104.662318
2242.000000	104.673030
2240.000000	104.687931
2238.000000	104.701766
2236.000000	104.715685
2234.000000	104.727089
2232.000000	104.740972
2230.000000	104.752777
2228.000000	104.766850
2226.000000	104.775749
2224.000000	104.785601
2222.000000	104.793449
2220.000000	104.801842
2218.000000	104.808086
2216.000000	104.815790
2214.000000	104.819557
2212.000000	104.825015
2210.000000	104.829021
2208.000000	104.834079
2206.000000	104.836267
2204.000000	104.840218
2202.000000	104.842281
2200.000000	104.847597
2198.000000	104.851091
2196.000000	104.853669
2194.000000	104.852666
2192.000000	104.854854
2190.000000	104.854730
2188.000000	104.854700
2186.000000	104.851947
2184.000000	104.852121
2182.000000	104.849544
2180.000000	104.849208
2178.000000	104.846698
2176.000000	104.845007
2174.000000	104.836133
2172.000000	104.813385
2170.000000	104.785820
2168.000000	104.795523
2166.000000	104.816737
2164.000000	104.823863
2162.000000	104.822383
2160.000000	104.822167
2158.000000	104.820483
2156.000000	104.821881
2154.000000	104.818843
2152.000000	104.816515
2150.000000	104.812142
2148.000000	104.811716
2146.000000	104.810660
2144.000000	104.811374
2142.000000	104.807774
2140.000000	104.805380
2138.000000	104.799776
2136.000000	104.797410
2134.000000	104.796837
2132.000000	104.798350
2130.000000	104.795896
2128.000000	104.794004
2126.000000	104.790608
2124.000000	104.789817
2122.000000	104.788833
2120.000000	104.792364
2118.000000	104.794740
2116.000000	104.797183
2114.000000	104.799984
2112.000000	104.808835
2110.000000	104.819344
2108.000000	104.833205
2106.000000	104.845647
2104.000000	104.858212
2102.000000	104.867711
2100.000000	104.879651
2098.000000	104.888939
2096.000000	104.903080
2094.000000	104.916746
2092.000000	104.929059
2090.000000	104.934975
2088.000000	104.950900
2086.000000	104.966713
2084.000000	104.985635
2082.000000	104.998966
2080.000000	105.015673
2078.000000	105.028437
2076.000000	105.046122
2074.000000	105.061477
2072.000000	105.080422
2070.000000	105.096699
2068.000000	105.111263
2066.000000	105.115129
2064.000000	105.137196
2062.000000	105.168568
2060.000000	105.194874
2058.000000	105.215310
2056.000000	105.237640
2054.000000	105.255049
2052.000000	105.275783
2050.000000	105.293535
2048.000000	105.315658
2046.000000	105.333018
2044.000000	105.346249
2042.000000	105.352346
2040.000000	105.375287
2038.000000	105.397086
2036.000000	105.411514
2034.000000	105.417431
2032.000000	105.417351
2030.000000	105.399531
2028.000000	105.409028
2026.000000	105.443396
2024.000000	105.467241
2022.000000	105.474352
2020.000000	105.467546
2018.000000	105.450727
2016.000000	105.476730
2014.000000	105.523426
2012.000000	105.551705
2010.000000	105.564249
2008.000000	105.579093
2006.000000	105.592003
2004.000000	105.603404
2002.000000	105.607123
2000.000000	105.609447
1998.000000	105.612302
1996.000000	105.612542
1994.000000	105.559678
1992.000000	105.512567
1990.000000	105.547097
1988.000000	105.586577
1986.000000	105.600363
1984.000000	105.601230
1982.000000	105.590499
1980.000000	105.580431
1978.000000	105.565008
1976.000000	105.549014
1974.000000	105.530183
1972.000000	105.509995
1970.000000	105.464861
1968.000000	105.397606
1966.000000	105.380457
1964.000000	105.396583
1962.000000	105.343917
1960.000000	105.223126
1958.000000	105.191737
1956.000000	105.270927
1954.000000	105.298907
1952.000000	105.283377
1950.000000	105.248711
1948.000000	105.219199
1946.000000	105.159632
1944.000000	105.044792
1942.000000	104.999780
1940.000000	105.091246
1938.000000	105.122738
1936.000000	105.103480
1934.000000	105.071025
1932.000000	105.045913
1930.000000	105.016289
1928.000000	104.988186
1926.000000	104.922073
1924.000000	104.809597
1922.000000	104.747023
1920.000000	104.632142
1918.000000	104.484197
1916.000000	104.608003
1914.000000	104.695833
1912.000000	104.631629
1910.000000	104.529961
1908.000000	104.495847
1906.000000	104.475361
1904.000000	104.437194
1902.000000	104.381711
1900.000000	104.337267
1898.000000	104.266953
1896.000000	104.188344
1894.000000	104.153682
1892.000000	104.093574
1890.000000	103.963039
1888.000000	104.013239
1886.000000	104.090449
1884.000000	104.093532
1882.000000	104.077197
1880.000000	104.060459
1878.000000	104.030797
1876.000000	104.012268
1874.000000	103.970335
1872.000000	103.797636
1870.000000	103.449457
1868.000000	103.414762
1866.000000	103.663787
1864.000000	103.792381
1862.000000	103.777564
1860.000000	103.745554
1858.000000	103.712620
1856.000000	103.693840
1854.000000	103.658593
1852.000000	103.619462
1850.000000	103.528392
1848.000000	103.353236
1846.000000	102.866268
1844.000000	102.569543
1842.000000	102.992397
1840.000000	103.281339
1838.000000	103.229687
1836.000000	103.178806
1834.000000	103.103963
1832.000000	102.806174
1830.000000	102.504581
1828.000000	102.575475
1826.000000	102.540205
1824.000000	102.563925
1822.000000	102.706000
1820.000000	102.694077
1818.000000	102.601567
1816.000000	102.542284
1814.000000	102.442784
1812.000000	102.253339
1810.000000	102.139661
1808.000000	102.144886
1806.000000	102.087221
1804.000000	101.894289
1802.000000	101.589099
1800.000000	101.448811
1798.000000	101.477809
1796.000000	101.342213
1794.000000	100.750619
1792.000000	100.429105
1790.000000	100.810019
1788.000000	101.020309
1786.000000	100.796520
1784.000000	100.651160
1782.000000	100.564839
1780.000000	100.464315
1778.000000	100.422615
1776.000000	100.112493
1774.000000	99.266937
1772.000000	98.850338
1770.000000	99.256390
1768.000000	99.492313
1766.000000	99.734897
1764.000000	99.576724
1762.000000	99.183322
1760.000000	99.235454
1758.000000	99.165975
1756.000000	99.033226
1754.000000	98.815315
1752.000000	98.074016
1750.000000	97.842363
1748.000000	98.091659
1746.000000	98.182886
1744.000000	98.042275
1742.000000	97.684708
1740.000000	97.334405
1738.000000	97.309534
1736.000000	96.379529
1734.000000	95.430293
1732.000000	96.347073
1730.000000	97.221944
1728.000000	97.447272
1726.000000	97.450081
1724.000000	97.346020
1722.000000	97.160975
1720.000000	96.262228
1718.000000	95.017932
1716.000000	95.266242
1714.000000	96.203885
1712.000000	96.674691
1710.000000	96.629896
1708.000000	96.287392
1706.000000	95.862336
1704.000000	95.633614
1702.000000	94.468725
1700.000000	93.606146
1698.000000	93.934529
1696.000000	93.849048
1694.000000	94.949990
1692.000000	95.916160
1690.000000	95.850750
1688.000000	95.362461
1686.000000	93.780273
1684.000000	93.182455
1682.000000	94.610465
1680.000000	95.435014
1678.000000	95.259882
1676.000000	94.583910
1674.000000	94.588712
1672.000000	94.658349
1670.000000	94.238101
1668.000000	94.503320
1666.000000	94.894453
1664.000000	94.560608
1662.000000	94.396541
1660.000000	94.667883
1658.000000	94.571995
1656.000000	93.253427
1654.000000	90.804216
1652.000000	91.000406
1650.000000	92.945334
1648.000000	92.817514
1646.000000	92.470732
1644.000000	93.218302
1642.000000	93.655072
1640.000000	93.413480
1638.000000	92.509212
1636.000000	91.453512
1634.000000	91.937340
1632.000000	92.725116
1630.000000	92.564158
1628.000000	92.140634
1626.000000	91.718277
1624.000000	91.080054
1622.000000	90.777407
1620.000000	90.413228
1618.000000	89.162507
1616.000000	88.627275
1614.000000	89.073199
1612.000000	88.772486
1610.000000	88.131951
1608.000000	87.807234
1606.000000	87.855642
1604.000000	88.052734
1602.000000	88.300221
1600.000000	88.547183
1598.000000	88.754100
1596.000000	88.888187
1594.000000	89.002181
1592.000000	89.077882
1590.000000	89.087206
1588.000000	89.053374
1586.000000	88.988538
1584.000000	88.910603
1582.000000	88.853254
1580.000000	88.668184
1578.000000	87.703821
1576.000000	87.024270
1574.000000	87.914744
1572.000000	88.198576
1570.000000	87.694289
1568.000000	87.780542
1566.000000	87.889696
1564.000000	87.567290
1562.000000	86.252776
1560.000000	84.089634
1558.000000	84.127350
1556.000000	85.674915
1554.000000	86.522009
1552.000000	87.166393
1550.000000	87.521876
1548.000000	87.708690
1546.000000	87.505593
1544.000000	86.996192
1542.000000	86.117615
1540.000000	85.631834
1538.000000	87.020551
1536.000000	88.390912
1534.000000	88.399177
1532.000000	88.745765
1530.000000	89.101702
1528.000000	88.877195
1526.000000	88.533853
1524.000000	88.107719
1522.000000	87.310323
1520.000000	87.466637
1518.000000	87.921769
1516.000000	87.949556
1514.000000	87.980261
1512.000000	87.769389
1510.000000	87.141821
1508.000000	85.550379
1506.000000	84.790416
1504.000000	85.516546
1502.000000	84.977816
1500.000000	82.443832
1498.000000	78.992276
1496.000000	76.475251
1494.000000	76.268109
1492.000000	77.351609
1490.000000	78.998527
1488.000000	80.993569
1486.000000	82.703131
1484.000000	83.825448
1482.000000	84.338238
1480.000000	84.571717
1478.000000	84.437093
1476.000000	83.957737
1474.000000	83.249719
1472.000000	83.075702
1470.000000	83.573305
1468.000000	83.521476
1466.000000	82.824829
1464.000000	82.433047
1462.000000	82.256653
1460.000000	81.147136
1458.000000	79.127396
1456.000000	78.143816
1454.000000	78.214136
1452.000000	77.893583
1450.000000	77.946088
1448.000000	78.733782
1446.000000	79.766355
1444.000000	80.306128
1442.000000	80.430662
1440.000000	80.266554
1438.000000	79.664773
1436.000000	79.584552
1434.000000	80.256326
1432.000000	80.405915
1430.000000	80.317546
1428.000000	80.379423
1426.000000	80.398925
1424.000000	80.258574
1422.000000	79.945282
1420.000000	79.226625
1418.000000	79.215520
1416.000000	79.605559
1414.000000	79.569862
1412.000000	79.217959
1410.000000	78.693486
1408.000000	77.928693
1406.000000	77.065822
1404.000000	76.593273
1402.000000	76.625846
1400.000000	76.778461
1398.000000	77.176706
1396.000000	77.519335
1394.000000	77.855436
1392.000000	78.300033
1390.000000	78.305285
1388.000000	77.895631
1386.000000	77.662393
1384.000000	77.661480
1382.000000	77.783469
1380.000000	77.871437
1378.000000	77.802911
1376.000000	77.600978
1374.000000	77.436229
1372.000000	77.450999
1370.000000	77.387167
1368.000000	77.233257
1366.000000	77.067568
1364.000000	76.777002
1362.000000	76.569841
1360.000000	76.532495
1358.000000	76.444440
1356.000000	76.252969
1354.000000	76.047323
1352.000000	75.843973
1350.000000	75.630083
1348.000000	75.413694
1346.000000	75.188599
1344.000000	74.934967
1342.000000	74.630997
1340.000000	74.334867
1338.000000	74.206511
1336.000000	74.171308
1334.000000	74.100262
1332.000000	73.952762
1330.000000	73.761506
1328.000000	73.540468
1326.000000	73.298502
1324.000000	73.031991
1322.000000	72.742790
1320.000000	72.423453
1318.000000	72.122209
1316.000000	71.833246
1314.000000	71.524248
1312.000000	71.213845
1310.000000	70.910512
1308.000000	70.587032
1306.000000	70.258256
1304.000000	69.917186
1302.000000	69.575312
1300.000000	69.230461
1298.000000	68.884128
1296.000000	68.526236
1294.000000	68.161554
1292.000000	67.777588
1290.000000	67.379624
1288.000000	66.974181
1286.000000	66.577512
1284.000000	66.168047
1282.000000	65.738255
1280.000000	65.279716
1278.000000	64.792237
1276.000000	64.253051
1274.000000	63.639114
1272.000000	62.906239
1270.000000	62.019214
1268.000000	60.914605
1266.000000	59.596006
1264.000000	58.224263
1262.000000	57.122344
1260.000000	56.570051
1258.000000	56.579642
1256.000000	56.870133
1254.000000	57.113769
1252.000000	57.111282
1250.000000	56.870789
1248.000000	56.475754
1246.000000	56.003597
1244.000000	55.493988
1242.000000	54.980842
1240.000000	54.470585
1238.000000	53.976135
1236.000000	53.497892
1234.000000	53.037511
1232.000000	52.583810
1230.000000	52.137937
1228.000000	51.690119
1226.000000	51.238500
1224.000000	50.778146
1222.000000	50.307679
1220.000000	49.814490
1218.000000	49.303125
1216.000000	48.779460
1214.000000	48.264052
1212.000000	47.770750
1210.000000	47.319527
1208.000000	46.902459
1206.000000	46.505312
1204.000000	46.106602
1202.000000	45.707403
1200.000000	45.312513
1198.000000	44.925872
1196.000000	44.533308
1194.000000	44.129788
1192.000000	43.710559
1190.000000	43.280756
1188.000000	42.836838
1186.000000	42.365500
1184.000000	41.780898
1182.000000	41.052225
1180.000000	40.485792
1178.000000	40.240794
1176.000000	40.008308
1174.000000	39.649659
1172.000000	39.220752
1170.000000	38.772790
1168.000000	38.307627
1166.000000	37.833889
1164.000000	37.361407
1162.000000	36.900462
1160.000000	36.444357
1158.000000	36.009231
1156.000000	35.587462
1154.000000	35.168918
1152.000000	34.743786
1150.000000	34.324691
1148.000000	33.893316
1146.000000	33.454301
1144.000000	33.024158
1142.000000	32.644788
1140.000000	32.330810
1138.000000	32.018563
1136.000000	31.658298
1134.000000	31.266055
1132.000000	30.851950
1130.000000	30.427019
1128.000000	30.002960
1126.000000	29.585065
1124.000000	29.156391
1122.000000	28.715879
1120.000000	28.264228
1118.000000	27.807907
1116.000000	27.341671
1114.000000	26.874071
1112.000000	26.405231
1110.000000	25.943728
1108.000000	25.490121
1106.000000	25.053282
1104.000000	24.634417
1102.000000	24.226074
1100.000000	23.814247
1098.000000	23.406505
1096.000000	23.007336
1094.000000	22.623159
1092.000000	22.253281
1090.000000	21.902556
1088.000000	21.561761
1086.000000	21.224277
1084.000000	20.876248
1082.000000	20.520283
1080.000000	20.183316
1078.000000	19.880040
1076.000000	19.602652
1074.000000	19.368935
1072.000000	19.152502
1070.000000	18.928435
1068.000000	18.696912
1066.000000	18.467449
1064.000000	18.235749
1062.000000	18.002054
1060.000000	17.754646
1058.000000	17.467283
1056.000000	17.077336
1054.000000	16.564013
1052.000000	16.055032
1050.000000	15.756591
1048.000000	15.722382
1046.000000	15.803356
1044.000000	15.804392
1042.000000	15.689936
1040.000000	15.506197
1038.000000	15.294862
1036.000000	15.066402
1034.000000	14.828191
1032.000000	14.580232
1030.000000	14.323897
1028.000000	14.057878
1026.000000	13.789127
1024.000000	13.515687
1022.000000	13.246742
1020.000000	12.991412
1018.000000	12.758816
1016.000000	12.544988
1014.000000	12.355224
1012.000000	12.183802
1010.000000	12.024151
1008.000000	11.860123
1006.000000	11.683276
1004.000000	11.486435
1002.000000	11.273167
1000.000000	11.044638
