PE IR       SUBTECH     SPECTRUM    ASCII       PEDS        4.00        
   -1
TE110A_016_90K_BG.ASC
20/05/14
12:05:30.00
20/05/14
12:05:30.00
Administrator
TE110A.Thursday, May 14 2020, 004.
1000.000000
#HDR
-1
-1
#GR
cm-1
EGY
1.0
0.0
6000.000000
-2.000000
2501
8
105.620429
11.023981
#DATA
6000.000000	16.751715
5998.000000	16.785466
5996.000000	16.818510
5994.000000	16.849882
5992.000000	16.881185
5990.000000	16.913812
5988.000000	16.947151
5986.000000	16.980915
5984.000000	17.014390
5982.000000	17.048803
5980.000000	17.082984
5978.000000	17.116851
5976.000000	17.150192
5974.000000	17.183938
5972.000000	17.217990
5970.000000	17.251925
5968.000000	17.284722
5966.000000	17.318526
5964.000000	17.352605
5962.000000	17.387141
5960.000000	17.421965
5958.000000	17.457110
5956.000000	17.491792
5954.000000	17.526008
5952.000000	17.560106
5950.000000	17.594916
5948.000000	17.629831
5946.000000	17.664201
5944.000000	17.698455
5942.000000	17.732717
5940.000000	17.766462
5938.000000	17.800427
5936.000000	17.833713
5934.000000	17.866921
5932.000000	17.900688
5930.000000	17.935937
5928.000000	17.970737
5926.000000	18.005904
5924.000000	18.040836
5922.000000	18.076307
5920.000000	18.112358
5918.000000	18.148674
5916.000000	18.185569
5914.000000	18.221955
5912.000000	18.257612
5910.000000	18.294266
5908.000000	18.331276
5906.000000	18.367551
5904.000000	18.403245
5902.000000	18.440491
5900.000000	18.477905
5898.000000	18.515152
5896.000000	18.551282
5894.000000	18.587423
5892.000000	18.624460
5890.000000	18.660816
5888.000000	18.697021
5886.000000	18.733008
5884.000000	18.768991
5882.000000	18.805268
5880.000000	18.842297
5878.000000	18.878672
5876.000000	18.914784
5874.000000	18.950534
5872.000000	18.986501
5870.000000	19.023472
5868.000000	19.060559
5866.000000	19.098648
5864.000000	19.136556
5862.000000	19.173729
5860.000000	19.210421
5858.000000	19.249169
5856.000000	19.288461
5854.000000	19.327744
5852.000000	19.366307
5850.000000	19.405676
5848.000000	19.445920
5846.000000	19.484892
5844.000000	19.524162
5842.000000	19.564941
5840.000000	19.606759
5838.000000	19.648193
5836.000000	19.688564
5834.000000	19.730269
5832.000000	19.772733
5830.000000	19.815916
5828.000000	19.858522
5826.000000	19.900018
5824.000000	19.941650
5822.000000	19.982831
5820.000000	20.023680
5818.000000	20.063905
5816.000000	20.103301
5814.000000	20.143752
5812.000000	20.184319
5810.000000	20.225368
5808.000000	20.266635
5806.000000	20.308146
5804.000000	20.349207
5802.000000	20.390432
5800.000000	20.430950
5798.000000	20.471292
5796.000000	20.511621
5794.000000	20.552502
5792.000000	20.593870
5790.000000	20.635905
5788.000000	20.677583
5786.000000	20.719576
5784.000000	20.762117
5782.000000	20.804868
5780.000000	20.846515
5778.000000	20.887475
5776.000000	20.928942
5774.000000	20.972585
5772.000000	21.015686
5770.000000	21.057130
5768.000000	21.097644
5766.000000	21.139112
5764.000000	21.181545
5762.000000	21.224699
5760.000000	21.267171
5758.000000	21.309442
5756.000000	21.350915
5754.000000	21.392957
5752.000000	21.435322
5750.000000	21.477883
5748.000000	21.520091
5746.000000	21.561268
5744.000000	21.601250
5742.000000	21.641633
5740.000000	21.682482
5738.000000	21.724054
5736.000000	21.765463
5734.000000	21.806862
5732.000000	21.847615
5730.000000	21.888128
5728.000000	21.929019
5726.000000	21.970742
5724.000000	22.012478
5722.000000	22.053665
5720.000000	22.094722
5718.000000	22.137093
5716.000000	22.181467
5714.000000	22.227169
5712.000000	22.271605
5710.000000	22.314791
5708.000000	22.358405
5706.000000	22.403068
5704.000000	22.447629
5702.000000	22.490729
5700.000000	22.534101
5698.000000	22.578735
5696.000000	22.624260
5694.000000	22.670443
5692.000000	22.715922
5690.000000	22.762063
5688.000000	22.808205
5686.000000	22.853483
5684.000000	22.898143
5682.000000	22.942981
5680.000000	22.988832
5678.000000	23.034546
5676.000000	23.080449
5674.000000	23.126816
5672.000000	23.173170
5670.000000	23.218356
5668.000000	23.263348
5666.000000	23.309687
5664.000000	23.356515
5662.000000	23.402697
5660.000000	23.447856
5658.000000	23.493535
5656.000000	23.539834
5654.000000	23.586625
5652.000000	23.632358
5650.000000	23.677323
5648.000000	23.722831
5646.000000	23.768752
5644.000000	23.813383
5642.000000	23.858077
5640.000000	23.903946
5638.000000	23.950741
5636.000000	23.996690
5634.000000	24.041808
5632.000000	24.086858
5630.000000	24.132510
5628.000000	24.178211
5626.000000	24.224860
5624.000000	24.270322
5622.000000	24.315972
5620.000000	24.361981
5618.000000	24.408263
5616.000000	24.453539
5614.000000	24.499147
5612.000000	24.545791
5610.000000	24.592373
5608.000000	24.637527
5606.000000	24.681632
5604.000000	24.726696
5602.000000	24.772921
5600.000000	24.820494
5598.000000	24.867709
5596.000000	24.914007
5594.000000	24.960260
5592.000000	25.006482
5590.000000	25.053604
5588.000000	25.100750
5586.000000	25.147749
5584.000000	25.194335
5582.000000	25.241467
5580.000000	25.289463
5578.000000	25.337411
5576.000000	25.384964
5574.000000	25.433063
5572.000000	25.481019
5570.000000	25.529069
5568.000000	25.576991
5566.000000	25.626087
5564.000000	25.675036
5562.000000	25.722646
5560.000000	25.769440
5558.000000	25.816407
5556.000000	25.863178
5554.000000	25.909228
5552.000000	25.955632
5550.000000	26.004139
5548.000000	26.054058
5546.000000	26.104077
5544.000000	26.153312
5542.000000	26.200051
5540.000000	26.245103
5538.000000	26.291307
5536.000000	26.339959
5534.000000	26.389421
5532.000000	26.437930
5530.000000	26.486272
5528.000000	26.534777
5526.000000	26.581997
5524.000000	26.627564
5522.000000	26.672768
5520.000000	26.718871
5518.000000	26.766722
5516.000000	26.815812
5514.000000	26.865560
5512.000000	26.912944
5510.000000	26.956827
5508.000000	27.000559
5506.000000	27.049100
5504.000000	27.101135
5502.000000	27.152238
5500.000000	27.200744
5498.000000	27.245241
5496.000000	27.284442
5494.000000	27.324162
5492.000000	27.369981
5490.000000	27.423906
5488.000000	27.481439
5486.000000	27.539052
5484.000000	27.595016
5482.000000	27.646366
5480.000000	27.688205
5478.000000	27.722408
5476.000000	27.762190
5474.000000	27.815922
5472.000000	27.875693
5470.000000	27.929047
5468.000000	27.976669
5466.000000	28.022815
5464.000000	28.066239
5462.000000	28.111366
5460.000000	28.163518
5458.000000	28.222404
5456.000000	28.280666
5454.000000	28.331683
5452.000000	28.373867
5450.000000	28.409455
5448.000000	28.445593
5446.000000	28.487975
5444.000000	28.534455
5442.000000	28.590138
5440.000000	28.648316
5438.000000	28.698953
5436.000000	28.743473
5434.000000	28.787062
5432.000000	28.831293
5430.000000	28.877812
5428.000000	28.935305
5426.000000	29.005221
5424.000000	29.072414
5422.000000	29.128955
5420.000000	29.176774
5418.000000	29.209097
5416.000000	29.229599
5414.000000	29.256179
5412.000000	29.303685
5410.000000	29.371565
5408.000000	29.441995
5406.000000	29.506588
5404.000000	29.563943
5402.000000	29.616952
5400.000000	29.663452
5398.000000	29.698044
5396.000000	29.728654
5394.000000	29.774466
5392.000000	29.838856
5390.000000	29.901951
5388.000000	29.948898
5386.000000	29.994504
5384.000000	30.052263
5382.000000	30.111077
5380.000000	30.150706
5378.000000	30.184408
5376.000000	30.233428
5374.000000	30.302305
5372.000000	30.372366
5370.000000	30.432107
5368.000000	30.482542
5366.000000	30.527878
5364.000000	30.576253
5362.000000	30.630626
5360.000000	30.685334
5358.000000	30.726445
5356.000000	30.754393
5354.000000	30.790388
5352.000000	30.843650
5350.000000	30.902389
5348.000000	30.941439
5346.000000	30.975197
5344.000000	31.023457
5342.000000	31.077183
5340.000000	31.124987
5338.000000	31.176485
5336.000000	31.244930
5334.000000	31.316691
5332.000000	31.372971
5330.000000	31.416296
5328.000000	31.463113
5326.000000	31.522894
5324.000000	31.590190
5322.000000	31.650126
5320.000000	31.700601
5318.000000	31.749035
5316.000000	31.799719
5314.000000	31.852520
5312.000000	31.900425
5310.000000	31.941675
5308.000000	31.985653
5306.000000	32.039502
5304.000000	32.098396
5302.000000	32.153756
5300.000000	32.207440
5298.000000	32.262248
5296.000000	32.314699
5294.000000	32.357425
5292.000000	32.396121
5290.000000	32.444305
5288.000000	32.501434
5286.000000	32.560764
5284.000000	32.615806
5282.000000	32.671106
5280.000000	32.727189
5278.000000	32.783935
5276.000000	32.839280
5274.000000	32.890668
5272.000000	32.937489
5270.000000	32.982763
5268.000000	33.020271
5266.000000	33.053253
5264.000000	33.096186
5262.000000	33.159927
5260.000000	33.230629
5258.000000	33.285433
5256.000000	33.330773
5254.000000	33.381803
5252.000000	33.432742
5250.000000	33.474941
5248.000000	33.515509
5246.000000	33.569507
5244.000000	33.638104
5242.000000	33.708533
5240.000000	33.772997
5238.000000	33.827317
5236.000000	33.876536
5234.000000	33.923328
5232.000000	33.971625
5230.000000	34.018244
5228.000000	34.058981
5226.000000	34.103002
5224.000000	34.161150
5222.000000	34.227599
5220.000000	34.287295
5218.000000	34.342028
5216.000000	34.399396
5214.000000	34.455145
5212.000000	34.497384
5210.000000	34.524269
5208.000000	34.555509
5206.000000	34.613129
5204.000000	34.690289
5202.000000	34.762945
5200.000000	34.817849
5198.000000	34.867798
5196.000000	34.923130
5194.000000	34.982806
5192.000000	35.038812
5190.000000	35.090072
5188.000000	35.138022
5186.000000	35.188392
5184.000000	35.244263
5182.000000	35.304731
5180.000000	35.363802
5178.000000	35.420834
5176.000000	35.477458
5174.000000	35.531897
5172.000000	35.584511
5170.000000	35.639148
5168.000000	35.694573
5166.000000	35.747747
5164.000000	35.800799
5162.000000	35.855768
5160.000000	35.909941
5158.000000	35.962764
5156.000000	36.018393
5154.000000	36.076216
5152.000000	36.133324
5150.000000	36.190644
5148.000000	36.247241
5146.000000	36.300809
5144.000000	36.351622
5142.000000	36.404603
5140.000000	36.460575
5138.000000	36.516917
5136.000000	36.570417
5134.000000	36.622874
5132.000000	36.676372
5130.000000	36.731903
5128.000000	36.787310
5126.000000	36.842823
5124.000000	36.897744
5122.000000	36.951101
5120.000000	37.003682
5118.000000	37.059020
5116.000000	37.116078
5114.000000	37.172102
5112.000000	37.226102
5110.000000	37.279746
5108.000000	37.334110
5106.000000	37.390268
5104.000000	37.447159
5102.000000	37.502983
5100.000000	37.557192
5098.000000	37.612150
5096.000000	37.668601
5094.000000	37.726531
5092.000000	37.784414
5090.000000	37.841720
5088.000000	37.897714
5086.000000	37.953433
5084.000000	38.009969
5082.000000	38.068208
5080.000000	38.126037
5078.000000	38.182857
5076.000000	38.238681
5074.000000	38.295075
5072.000000	38.352822
5070.000000	38.410773
5068.000000	38.466879
5066.000000	38.522444
5064.000000	38.578597
5062.000000	38.635807
5060.000000	38.693107
5058.000000	38.751547
5056.000000	38.808449
5054.000000	38.863237
5052.000000	38.917547
5050.000000	38.973645
5048.000000	39.030339
5046.000000	39.086156
5044.000000	39.141578
5042.000000	39.198080
5040.000000	39.254493
5038.000000	39.311089
5036.000000	39.367913
5034.000000	39.425228
5032.000000	39.480692
5030.000000	39.535900
5028.000000	39.592298
5026.000000	39.649457
5024.000000	39.705334
5022.000000	39.760375
5020.000000	39.816015
5018.000000	39.873279
5016.000000	39.931257
5014.000000	39.989064
5012.000000	40.045403
5010.000000	40.101656
5008.000000	40.158390
5006.000000	40.215928
5004.000000	40.273094
5002.000000	40.330546
5000.000000	40.388718
4998.000000	40.447625
4996.000000	40.505359
4994.000000	40.562698
4992.000000	40.620565
4990.000000	40.679828
4988.000000	40.739050
4986.000000	40.798512
4984.000000	40.857177
4982.000000	40.914986
4980.000000	40.971787
4978.000000	41.030465
4976.000000	41.090215
4974.000000	41.149475
4972.000000	41.206183
4970.000000	41.263123
4968.000000	41.321290
4966.000000	41.380203
4964.000000	41.438293
4962.000000	41.496259
4960.000000	41.553797
4958.000000	41.610789
4956.000000	41.667565
4954.000000	41.725380
4952.000000	41.782042
4950.000000	41.838990
4948.000000	41.897029
4946.000000	41.955438
4944.000000	42.011877
4942.000000	42.068119
4940.000000	42.124596
4938.000000	42.180645
4936.000000	42.237015
4934.000000	42.294787
4932.000000	42.353026
4930.000000	42.410084
4928.000000	42.466370
4926.000000	42.523583
4924.000000	42.581489
4922.000000	42.639413
4920.000000	42.696897
4918.000000	42.754642
4916.000000	42.811768
4914.000000	42.869488
4912.000000	42.927699
4910.000000	42.986939
4908.000000	43.046123
4906.000000	43.104987
4904.000000	43.162799
4902.000000	43.221089
4900.000000	43.279454
4898.000000	43.338655
4896.000000	43.398575
4894.000000	43.459074
4892.000000	43.518147
4890.000000	43.577087
4888.000000	43.636551
4886.000000	43.697058
4884.000000	43.757309
4882.000000	43.817460
4880.000000	43.876529
4878.000000	43.935794
4876.000000	43.994528
4874.000000	44.052915
4872.000000	44.111063
4870.000000	44.171243
4868.000000	44.231573
4866.000000	44.290033
4864.000000	44.347143
4862.000000	44.405166
4860.000000	44.463330
4858.000000	44.522014
4856.000000	44.580956
4854.000000	44.639625
4852.000000	44.697248
4850.000000	44.755607
4848.000000	44.814198
4846.000000	44.872567
4844.000000	44.929541
4842.000000	44.986241
4840.000000	45.043061
4838.000000	45.101246
4836.000000	45.159570
4834.000000	45.218352
4832.000000	45.276864
4830.000000	45.334964
4828.000000	45.391932
4826.000000	45.449536
4824.000000	45.507848
4822.000000	45.566947
4820.000000	45.626046
4818.000000	45.684729
4816.000000	45.743101
4814.000000	45.802201
4812.000000	45.861645
4810.000000	45.922037
4808.000000	45.982262
4806.000000	46.042098
4804.000000	46.101251
4802.000000	46.161934
4800.000000	46.222772
4798.000000	46.283267
4796.000000	46.342681
4794.000000	46.402850
4792.000000	46.463517
4790.000000	46.524767
4788.000000	46.586379
4786.000000	46.647952
4784.000000	46.707424
4782.000000	46.767142
4780.000000	46.827405
4778.000000	46.887835
4776.000000	46.947405
4774.000000	47.007801
4772.000000	47.067870
4770.000000	47.128118
4768.000000	47.188042
4766.000000	47.247794
4764.000000	47.307072
4762.000000	47.366505
4760.000000	47.424787
4758.000000	47.482964
4756.000000	47.541667
4754.000000	47.600647
4752.000000	47.658373
4750.000000	47.716323
4748.000000	47.774730
4746.000000	47.834318
4744.000000	47.893132
4742.000000	47.950911
4740.000000	48.007788
4738.000000	48.065700
4736.000000	48.124207
4734.000000	48.183113
4732.000000	48.240936
4730.000000	48.298444
4728.000000	48.356396
4726.000000	48.415758
4724.000000	48.475291
4722.000000	48.535795
4720.000000	48.596863
4718.000000	48.657972
4716.000000	48.719206
4714.000000	48.781911
4712.000000	48.845067
4710.000000	48.907508
4708.000000	48.969658
4706.000000	49.032471
4704.000000	49.096060
4702.000000	49.160904
4700.000000	49.224564
4698.000000	49.286181
4696.000000	49.346315
4694.000000	49.408058
4692.000000	49.470829
4690.000000	49.533489
4688.000000	49.595137
4686.000000	49.656263
4684.000000	49.716808
4682.000000	49.779356
4680.000000	49.842313
4678.000000	49.903570
4676.000000	49.964192
4674.000000	50.026952
4672.000000	50.088906
4670.000000	50.149779
4668.000000	50.209483
4666.000000	50.269561
4664.000000	50.331313
4662.000000	50.394943
4660.000000	50.456454
4658.000000	50.516441
4656.000000	50.576974
4654.000000	50.638761
4652.000000	50.699699
4650.000000	50.760436
4648.000000	50.821273
4646.000000	50.883377
4644.000000	50.945820
4642.000000	51.008017
4640.000000	51.069042
4638.000000	51.130563
4636.000000	51.191751
4634.000000	51.253339
4632.000000	51.314789
4630.000000	51.376546
4628.000000	51.437276
4626.000000	51.498049
4624.000000	51.558697
4622.000000	51.620534
4620.000000	51.682664
4618.000000	51.745656
4616.000000	51.809135
4614.000000	51.874091
4612.000000	51.939010
4610.000000	52.004268
4608.000000	52.069295
4606.000000	52.134973
4604.000000	52.199540
4602.000000	52.263553
4600.000000	52.327599
4598.000000	52.393368
4596.000000	52.459224
4594.000000	52.524157
4592.000000	52.587594
4590.000000	52.652566
4588.000000	52.717768
4586.000000	52.782610
4584.000000	52.847116
4582.000000	52.911956
4580.000000	52.975658
4578.000000	53.040487
4576.000000	53.105184
4574.000000	53.168745
4572.000000	53.231718
4570.000000	53.296169
4568.000000	53.360354
4566.000000	53.423801
4564.000000	53.486852
4562.000000	53.550872
4560.000000	53.614098
4558.000000	53.677336
4556.000000	53.740632
4554.000000	53.803905
4552.000000	53.866443
4550.000000	53.929833
4548.000000	53.992940
4546.000000	54.056267
4544.000000	54.118706
4542.000000	54.180743
4540.000000	54.242352
4538.000000	54.305190
4536.000000	54.367868
4534.000000	54.431617
4532.000000	54.495519
4530.000000	54.559001
4528.000000	54.620591
4526.000000	54.683273
4524.000000	54.747877
4522.000000	54.813471
4520.000000	54.877579
4518.000000	54.941761
4516.000000	55.005993
4514.000000	55.071211
4512.000000	55.136037
4510.000000	55.200718
4508.000000	55.265599
4506.000000	55.332384
4504.000000	55.398930
4502.000000	55.465324
4500.000000	55.529802
4498.000000	55.594346
4496.000000	55.660844
4494.000000	55.728575
4492.000000	55.793549
4490.000000	55.858769
4488.000000	55.924867
4486.000000	55.990846
4484.000000	56.055621
4482.000000	56.119358
4480.000000	56.181819
4478.000000	56.246611
4476.000000	56.311672
4474.000000	56.375111
4472.000000	56.437839
4470.000000	56.502140
4468.000000	56.565552
4466.000000	56.628354
4464.000000	56.691579
4462.000000	56.754973
4460.000000	56.815855
4458.000000	56.877572
4456.000000	56.940327
4454.000000	57.002970
4452.000000	57.064656
4450.000000	57.126197
4448.000000	57.187210
4446.000000	57.250762
4444.000000	57.314574
4442.000000	57.377213
4440.000000	57.439733
4438.000000	57.503772
4436.000000	57.566543
4434.000000	57.629003
4432.000000	57.691787
4430.000000	57.756058
4428.000000	57.820121
4426.000000	57.883088
4424.000000	57.944380
4422.000000	58.007701
4420.000000	58.071777
4418.000000	58.135595
4416.000000	58.199151
4414.000000	58.264386
4412.000000	58.329911
4410.000000	58.395804
4408.000000	58.460082
4406.000000	58.524348
4404.000000	58.589135
4402.000000	58.654582
4400.000000	58.719874
4398.000000	58.785150
4396.000000	58.848404
4394.000000	58.911103
4392.000000	58.974104
4390.000000	59.037878
4388.000000	59.100703
4386.000000	59.162864
4384.000000	59.223865
4382.000000	59.284525
4380.000000	59.344242
4378.000000	59.404741
4376.000000	59.465215
4374.000000	59.525496
4372.000000	59.585452
4370.000000	59.646735
4368.000000	59.707425
4366.000000	59.767222
4364.000000	59.826563
4362.000000	59.888125
4360.000000	59.950788
4358.000000	60.014020
4356.000000	60.077040
4354.000000	60.140440
4352.000000	60.202508
4350.000000	60.265026
4348.000000	60.327656
4346.000000	60.390919
4344.000000	60.454732
4342.000000	60.519299
4340.000000	60.582612
4338.000000	60.646330
4336.000000	60.709421
4334.000000	60.773332
4332.000000	60.838746
4330.000000	60.904465
4328.000000	60.968087
4326.000000	61.032224
4324.000000	61.097327
4322.000000	61.164524
4320.000000	61.232580
4318.000000	61.301519
4316.000000	61.369511
4314.000000	61.436606
4312.000000	61.502794
4310.000000	61.570668
4308.000000	61.637919
4306.000000	61.704059
4304.000000	61.769641
4302.000000	61.837081
4300.000000	61.904249
4298.000000	61.970514
4296.000000	62.034805
4294.000000	62.099562
4292.000000	62.164052
4290.000000	62.228420
4288.000000	62.291567
4286.000000	62.354365
4284.000000	62.415290
4282.000000	62.475778
4280.000000	62.535710
4278.000000	62.596132
4276.000000	62.655562
4274.000000	62.714278
4272.000000	62.772105
4270.000000	62.831274
4268.000000	62.891610
4266.000000	62.953715
4264.000000	63.015262
4262.000000	63.077172
4260.000000	63.140020
4258.000000	63.203708
4256.000000	63.266689
4254.000000	63.329645
4252.000000	63.391566
4250.000000	63.455409
4248.000000	63.520443
4246.000000	63.585264
4244.000000	63.649426
4242.000000	63.714337
4240.000000	63.778367
4238.000000	63.842350
4236.000000	63.906432
4234.000000	63.972489
4232.000000	64.037988
4230.000000	64.102310
4228.000000	64.166933
4226.000000	64.232586
4224.000000	64.295078
4222.000000	64.356545
4220.000000	64.419801
4218.000000	64.485201
4216.000000	64.550142
4214.000000	64.616021
4212.000000	64.682263
4210.000000	64.748942
4208.000000	64.814989
4206.000000	64.881304
4204.000000	64.948432
4202.000000	65.017795
4200.000000	65.086462
4198.000000	65.154184
4196.000000	65.221160
4194.000000	65.289349
4192.000000	65.357976
4190.000000	65.426406
4188.000000	65.494393
4186.000000	65.563760
4184.000000	65.631126
4182.000000	65.696282
4180.000000	65.761192
4178.000000	65.827535
4176.000000	65.893510
4174.000000	65.958968
4172.000000	66.022672
4170.000000	66.085601
4168.000000	66.148415
4166.000000	66.213532
4164.000000	66.279552
4162.000000	66.344794
4160.000000	66.408376
4158.000000	66.473236
4156.000000	66.538375
4154.000000	66.602650
4152.000000	66.665952
4150.000000	66.730358
4148.000000	66.795124
4146.000000	66.861252
4144.000000	66.926946
4142.000000	66.991852
4140.000000	67.056765
4138.000000	67.123113
4136.000000	67.188740
4134.000000	67.254921
4132.000000	67.321068
4130.000000	67.386674
4128.000000	67.450980
4126.000000	67.516353
4124.000000	67.583339
4122.000000	67.651790
4120.000000	67.718217
4118.000000	67.783768
4116.000000	67.850826
4114.000000	67.918961
4112.000000	67.984219
4110.000000	68.048001
4108.000000	68.109585
4106.000000	68.171649
4104.000000	68.237550
4102.000000	68.306401
4100.000000	68.372637
4098.000000	68.436433
4096.000000	68.499107
4094.000000	68.563031
4092.000000	68.627812
4090.000000	68.694587
4088.000000	68.763195
4086.000000	68.834283
4084.000000	68.904306
4082.000000	68.971837
4080.000000	69.038403
4078.000000	69.107225
4076.000000	69.175088
4074.000000	69.241550
4072.000000	69.306290
4070.000000	69.370296
4068.000000	69.435054
4066.000000	69.501514
4064.000000	69.565928
4062.000000	69.629930
4060.000000	69.694313
4058.000000	69.759312
4056.000000	69.824439
4054.000000	69.890294
4052.000000	69.955532
4050.000000	70.020720
4048.000000	70.082228
4046.000000	70.141492
4044.000000	70.204964
4042.000000	70.275563
4040.000000	70.346116
4038.000000	70.414228
4036.000000	70.481176
4034.000000	70.547913
4032.000000	70.613541
4030.000000	70.679434
4028.000000	70.743931
4026.000000	70.809960
4024.000000	70.880215
4022.000000	70.950515
4020.000000	71.017030
4018.000000	71.086372
4016.000000	71.157531
4014.000000	71.226761
4012.000000	71.292771
4010.000000	71.357993
4008.000000	71.427470
4006.000000	71.501147
4004.000000	71.570562
4002.000000	71.637203
4000.000000	71.704092
3998.000000	71.769550
3996.000000	71.831306
3994.000000	71.893339
3992.000000	71.956801
3990.000000	72.023695
3988.000000	72.092576
3986.000000	72.158177
3984.000000	72.218306
3982.000000	72.280773
3980.000000	72.345119
3978.000000	72.402999
3976.000000	72.456180
3974.000000	72.516384
3972.000000	72.582075
3970.000000	72.649460
3968.000000	72.718020
3966.000000	72.780153
3964.000000	72.826938
3962.000000	72.876422
3960.000000	72.941674
3958.000000	73.011462
3956.000000	73.074550
3954.000000	73.124487
3952.000000	73.150394
3950.000000	73.171993
3948.000000	73.229340
3946.000000	73.297891
3944.000000	73.341093
3942.000000	73.417622
3940.000000	73.538144
3938.000000	73.633799
3936.000000	73.658767
3934.000000	73.630767
3932.000000	73.653863
3930.000000	73.771931
3928.000000	73.871667
3926.000000	73.909124
3924.000000	73.960516
3922.000000	74.010710
3920.000000	73.999923
3918.000000	74.017421
3916.000000	74.172167
3914.000000	74.381899
3912.000000	74.516936
3910.000000	74.563823
3908.000000	74.463148
3906.000000	74.182369
3904.000000	73.943259
3902.000000	73.947947
3900.000000	74.186906
3898.000000	74.566989
3896.000000	74.837622
3894.000000	74.787402
3892.000000	74.669353
3890.000000	74.745988
3888.000000	74.725125
3886.000000	74.633331
3884.000000	74.783907
3882.000000	74.957477
3880.000000	75.104029
3878.000000	75.300854
3876.000000	75.336092
3874.000000	75.180957
3872.000000	74.892300
3870.000000	74.785792
3868.000000	75.025549
3866.000000	75.215471
3864.000000	75.343403
3862.000000	75.606080
3860.000000	75.821895
3858.000000	75.504720
3856.000000	74.396375
3854.000000	73.624835
3852.000000	74.303543
3850.000000	75.579162
3848.000000	76.273075
3846.000000	76.354593
3844.000000	76.217882
3842.000000	75.969609
3840.000000	75.514638
3838.000000	75.292947
3836.000000	75.682026
3834.000000	76.196043
3832.000000	76.503512
3830.000000	76.730881
3828.000000	76.867923
3826.000000	76.876387
3824.000000	76.615909
3822.000000	76.291875
3820.000000	76.293031
3818.000000	76.266599
3816.000000	76.334282
3814.000000	76.929745
3812.000000	77.448371
3810.000000	77.352421
3808.000000	77.010649
3806.000000	76.968494
3804.000000	76.860706
3802.000000	76.634190
3800.000000	76.952911
3798.000000	77.485894
3796.000000	77.802701
3794.000000	78.057686
3792.000000	78.233494
3790.000000	78.308276
3788.000000	78.329444
3786.000000	78.336501
3784.000000	78.364177
3782.000000	78.343689
3780.000000	78.316271
3778.000000	78.452567
3776.000000	78.650590
3774.000000	78.686847
3772.000000	78.520517
3770.000000	78.404087
3768.000000	78.494033
3766.000000	78.658699
3764.000000	78.808207
3762.000000	78.813177
3760.000000	78.728280
3758.000000	78.768771
3756.000000	78.658301
3754.000000	77.998690
3752.000000	77.276953
3750.000000	77.286439
3748.000000	77.562584
3746.000000	77.311365
3744.000000	77.484543
3742.000000	78.503736
3740.000000	79.037873
3738.000000	78.748017
3736.000000	78.463689
3734.000000	78.580763
3732.000000	78.994340
3730.000000	79.478576
3728.000000	79.685837
3726.000000	79.704724
3724.000000	79.777018
3722.000000	79.907660
3720.000000	80.080566
3718.000000	80.230048
3716.000000	80.151326
3714.000000	79.730646
3712.000000	79.447326
3710.000000	79.722487
3708.000000	80.238757
3706.000000	80.546652
3704.000000	80.541387
3702.000000	80.503285
3700.000000	80.664469
3698.000000	80.853289
3696.000000	80.904344
3694.000000	80.745966
3692.000000	80.271691
3690.000000	79.738944
3688.000000	79.871222
3686.000000	80.616648
3684.000000	81.122333
3682.000000	81.171885
3680.000000	80.900963
3678.000000	80.241027
3676.000000	79.755761
3674.000000	79.935381
3672.000000	80.070295
3670.000000	80.208728
3668.000000	80.831093
3666.000000	81.414186
3664.000000	81.630695
3662.000000	81.663512
3660.000000	81.545699
3658.000000	81.250279
3656.000000	81.136362
3654.000000	81.156045
3652.000000	80.720018
3650.000000	80.211304
3648.000000	80.441196
3646.000000	81.158476
3644.000000	81.663621
3642.000000	81.831510
3640.000000	81.872611
3638.000000	81.874537
3636.000000	81.822619
3634.000000	81.680520
3632.000000	81.217162
3630.000000	80.623224
3628.000000	80.766951
3626.000000	81.472734
3624.000000	81.818039
3622.000000	81.624222
3620.000000	81.338511
3618.000000	81.384135
3616.000000	81.548936
3614.000000	81.530194
3612.000000	81.420288
3610.000000	81.344046
3608.000000	81.472466
3606.000000	81.767973
3604.000000	81.932169
3602.000000	81.918355
3600.000000	81.878813
3598.000000	81.843794
3596.000000	81.795802
3594.000000	81.807767
3592.000000	81.789899
3590.000000	81.569779
3588.000000	81.390778
3586.000000	81.547080
3584.000000	81.817575
3582.000000	81.937866
3580.000000	81.948403
3578.000000	81.943452
3576.000000	81.942171
3574.000000	81.941492
3572.000000	81.874455
3570.000000	81.639488
3568.000000	81.403508
3566.000000	81.457553
3564.000000	81.679013
3562.000000	81.807519
3560.000000	81.848804
3558.000000	81.873640
3556.000000	81.861424
3554.000000	81.805650
3552.000000	81.773788
3550.000000	81.757420
3548.000000	81.682973
3546.000000	81.627718
3544.000000	81.676003
3542.000000	81.754641
3540.000000	81.776373
3538.000000	81.742945
3536.000000	81.714861
3534.000000	81.707440
3532.000000	81.669242
3530.000000	81.593056
3528.000000	81.523492
3526.000000	81.475574
3524.000000	81.442113
3522.000000	81.439380
3520.000000	81.443413
3518.000000	81.426514
3516.000000	81.395477
3514.000000	81.348349
3512.000000	81.280899
3510.000000	81.217908
3508.000000	81.179928
3506.000000	81.119060
3504.000000	81.028395
3502.000000	80.981144
3500.000000	80.967420
3498.000000	80.926268
3496.000000	80.869496
3494.000000	80.824135
3492.000000	80.775608
3490.000000	80.713088
3488.000000	80.653397
3486.000000	80.608953
3484.000000	80.560512
3482.000000	80.516486
3480.000000	80.506257
3478.000000	80.512773
3476.000000	80.511861
3474.000000	80.514553
3472.000000	80.523233
3470.000000	80.525564
3468.000000	80.533224
3466.000000	80.562862
3464.000000	80.601455
3462.000000	80.639259
3460.000000	80.682157
3458.000000	80.725230
3456.000000	80.760097
3454.000000	80.787429
3452.000000	80.806749
3450.000000	80.803926
3448.000000	80.791456
3446.000000	80.818263
3444.000000	80.875976
3442.000000	80.939848
3440.000000	81.016582
3438.000000	81.101649
3436.000000	81.199078
3434.000000	81.320523
3432.000000	81.460504
3430.000000	81.605065
3428.000000	81.750107
3426.000000	81.887478
3424.000000	82.004903
3422.000000	82.107440
3420.000000	82.218696
3418.000000	82.337390
3416.000000	82.438335
3414.000000	82.518283
3412.000000	82.591033
3410.000000	82.659229
3408.000000	82.721850
3406.000000	82.779580
3404.000000	82.827901
3402.000000	82.869855
3400.000000	82.923890
3398.000000	83.000600
3396.000000	83.083379
3394.000000	83.149958
3392.000000	83.214068
3390.000000	83.297381
3388.000000	83.378945
3386.000000	83.441909
3384.000000	83.500880
3382.000000	83.560910
3380.000000	83.615607
3378.000000	83.665471
3376.000000	83.715753
3374.000000	83.764692
3372.000000	83.801790
3370.000000	83.827858
3368.000000	83.864315
3366.000000	83.916752
3364.000000	83.972339
3362.000000	84.021779
3360.000000	84.067089
3358.000000	84.111065
3356.000000	84.154390
3354.000000	84.197515
3352.000000	84.236083
3350.000000	84.275271
3348.000000	84.321605
3346.000000	84.367866
3344.000000	84.409876
3342.000000	84.447332
3340.000000	84.479753
3338.000000	84.512403
3336.000000	84.555786
3334.000000	84.605643
3332.000000	84.650181
3330.000000	84.686970
3328.000000	84.719251
3326.000000	84.751215
3324.000000	84.790125
3322.000000	84.833008
3320.000000	84.872557
3318.000000	84.908330
3316.000000	84.941990
3314.000000	84.973410
3312.000000	85.002241
3310.000000	85.024746
3308.000000	85.043519
3306.000000	85.070885
3304.000000	85.117737
3302.000000	85.170430
3300.000000	85.212177
3298.000000	85.246468
3296.000000	85.278015
3294.000000	85.305017
3292.000000	85.336154
3290.000000	85.380438
3288.000000	85.427911
3286.000000	85.469239
3284.000000	85.507134
3282.000000	85.544444
3280.000000	85.580775
3278.000000	85.613755
3276.000000	85.644973
3274.000000	85.678390
3272.000000	85.714809
3270.000000	85.759101
3268.000000	85.810947
3266.000000	85.858655
3264.000000	85.902669
3262.000000	85.946280
3260.000000	85.989141
3258.000000	86.030416
3256.000000	86.071059
3254.000000	86.117084
3252.000000	86.169678
3250.000000	86.219497
3248.000000	86.260680
3246.000000	86.300696
3244.000000	86.353171
3242.000000	86.410611
3240.000000	86.463472
3238.000000	86.513054
3236.000000	86.557312
3234.000000	86.596207
3232.000000	86.645225
3230.000000	86.703430
3228.000000	86.759088
3226.000000	86.813243
3224.000000	86.863535
3222.000000	86.906943
3220.000000	86.951632
3218.000000	87.001271
3216.000000	87.049854
3214.000000	87.098246
3212.000000	87.150259
3210.000000	87.204248
3208.000000	87.264718
3206.000000	87.331116
3204.000000	87.399945
3202.000000	87.468879
3200.000000	87.535359
3198.000000	87.602383
3196.000000	87.678455
3194.000000	87.757624
3192.000000	87.832021
3190.000000	87.902878
3188.000000	87.972985
3186.000000	88.042075
3184.000000	88.115175
3182.000000	88.189357
3180.000000	88.258230
3178.000000	88.327532
3176.000000	88.403945
3174.000000	88.480297
3172.000000	88.553523
3170.000000	88.625701
3168.000000	88.699996
3166.000000	88.775949
3164.000000	88.853995
3162.000000	88.932481
3160.000000	89.011468
3158.000000	89.090060
3156.000000	89.165308
3154.000000	89.233671
3152.000000	89.305999
3150.000000	89.392800
3148.000000	89.481548
3146.000000	89.560991
3144.000000	89.635337
3142.000000	89.706300
3140.000000	89.775462
3138.000000	89.847455
3136.000000	89.919070
3134.000000	89.983583
3132.000000	90.051065
3130.000000	90.120096
3128.000000	90.185205
3126.000000	90.247053
3124.000000	90.304197
3122.000000	90.352670
3120.000000	90.397608
3118.000000	90.444959
3116.000000	90.502169
3114.000000	90.570235
3112.000000	90.634715
3110.000000	90.686639
3108.000000	90.739554
3106.000000	90.799796
3104.000000	90.858848
3102.000000	90.914707
3100.000000	90.978200
3098.000000	91.044640
3096.000000	91.110156
3094.000000	91.178700
3092.000000	91.244052
3090.000000	91.302580
3088.000000	91.359941
3086.000000	91.411994
3084.000000	91.458132
3082.000000	91.498978
3080.000000	91.534215
3078.000000	91.572807
3076.000000	91.619875
3074.000000	91.656037
3072.000000	91.675394
3070.000000	91.682627
3068.000000	91.686139
3066.000000	91.701451
3064.000000	91.737385
3062.000000	91.787613
3060.000000	91.843680
3058.000000	91.899665
3056.000000	91.961818
3054.000000	92.028457
3052.000000	92.085999
3050.000000	92.133808
3048.000000	92.183514
3046.000000	92.226918
3044.000000	92.257058
3042.000000	92.281648
3040.000000	92.309773
3038.000000	92.330956
3036.000000	92.338744
3034.000000	92.334769
3032.000000	92.322170
3030.000000	92.294185
3028.000000	92.232114
3026.000000	92.123815
3024.000000	91.992427
3022.000000	91.874221
3020.000000	91.809012
3018.000000	91.835769
3016.000000	91.975167
3014.000000	92.207815
3012.000000	92.492292
3010.000000	92.776026
3008.000000	93.011941
3006.000000	93.177458
3004.000000	93.290293
3002.000000	93.371582
3000.000000	93.429663
2998.000000	93.468948
2996.000000	93.498067
2994.000000	93.517725
2992.000000	93.530188
2990.000000	93.532896
2988.000000	93.518753
2986.000000	93.484187
2984.000000	93.427014
2982.000000	93.338614
2980.000000	93.215909
2978.000000	93.050158
2976.000000	92.822335
2974.000000	92.514231
2972.000000	92.118297
2970.000000	91.635820
2968.000000	91.110089
2966.000000	90.622825
2964.000000	90.264812
2962.000000	90.092400
2960.000000	90.107285
2958.000000	90.250629
2956.000000	90.444979
2954.000000	90.629849
2952.000000	90.774153
2950.000000	90.847053
2948.000000	90.811400
2946.000000	90.644583
2944.000000	90.348021
2942.000000	89.935662
2940.000000	89.442852
2938.000000	88.926592
2936.000000	88.450331
2934.000000	88.027659
2932.000000	87.627237
2930.000000	87.233546
2928.000000	86.903671
2926.000000	86.740471
2924.000000	86.849715
2922.000000	87.272391
2920.000000	87.952405
2918.000000	88.772949
2916.000000	89.627076
2914.000000	90.430429
2912.000000	91.125571
2910.000000	91.682834
2908.000000	92.117508
2906.000000	92.467770
2904.000000	92.769830
2902.000000	93.045147
2900.000000	93.302601
2898.000000	93.541498
2896.000000	93.768104
2894.000000	93.984684
2892.000000	94.190910
2890.000000	94.379105
2888.000000	94.542229
2886.000000	94.670671
2884.000000	94.759338
2882.000000	94.802231
2880.000000	94.799723
2878.000000	94.746586
2876.000000	94.634744
2874.000000	94.454458
2872.000000	94.199396
2870.000000	93.838556
2868.000000	93.348787
2866.000000	92.769688
2864.000000	92.224994
2862.000000	91.868976
2860.000000	91.793280
2858.000000	91.962366
2856.000000	92.268535
2854.000000	92.628906
2852.000000	93.043050
2850.000000	93.550794
2848.000000	94.157165
2846.000000	94.780111
2844.000000	95.325059
2842.000000	95.758537
2840.000000	96.098074
2838.000000	96.368410
2836.000000	96.591420
2834.000000	96.775791
2832.000000	96.933191
2830.000000	97.068988
2828.000000	97.190490
2826.000000	97.301312
2824.000000	97.403813
2822.000000	97.495976
2820.000000	97.581730
2818.000000	97.659756
2816.000000	97.730805
2814.000000	97.794056
2812.000000	97.852553
2810.000000	97.905211
2808.000000	97.955700
2806.000000	98.004211
2804.000000	98.051767
2802.000000	98.095183
2800.000000	98.137073
2798.000000	98.177676
2796.000000	98.219420
2794.000000	98.260403
2792.000000	98.306509
2790.000000	98.361834
2788.000000	98.432324
2786.000000	98.514712
2784.000000	98.601373
2782.000000	98.681869
2780.000000	98.756305
2778.000000	98.823323
2776.000000	98.884538
2774.000000	98.941828
2772.000000	98.997982
2770.000000	99.049154
2768.000000	99.100428
2766.000000	99.149160
2764.000000	99.196934
2762.000000	99.244010
2760.000000	99.290492
2758.000000	99.333214
2756.000000	99.375506
2754.000000	99.415966
2752.000000	99.455593
2750.000000	99.492329
2748.000000	99.529531
2746.000000	99.565477
2744.000000	99.601077
2742.000000	99.634984
2740.000000	99.669662
2738.000000	99.703865
2736.000000	99.739032
2734.000000	99.772069
2732.000000	99.805830
2730.000000	99.837977
2728.000000	99.870118
2726.000000	99.899803
2724.000000	99.931099
2722.000000	99.963609
2720.000000	99.996468
2718.000000	100.026764
2716.000000	100.057351
2714.000000	100.084859
2712.000000	100.109374
2710.000000	100.131187
2708.000000	100.154821
2706.000000	100.179278
2704.000000	100.209446
2702.000000	100.246331
2700.000000	100.290082
2698.000000	100.335522
2696.000000	100.382546
2694.000000	100.426983
2692.000000	100.469768
2690.000000	100.510302
2688.000000	100.552241
2686.000000	100.592506
2684.000000	100.631740
2682.000000	100.667502
2680.000000	100.701676
2678.000000	100.734177
2676.000000	100.767772
2674.000000	100.798285
2672.000000	100.828317
2670.000000	100.857344
2668.000000	100.887659
2666.000000	100.916925
2664.000000	100.946617
2662.000000	100.974049
2660.000000	101.001799
2658.000000	101.031128
2656.000000	101.065461
2654.000000	101.100484
2652.000000	101.138756
2650.000000	101.178909
2648.000000	101.220922
2646.000000	101.259491
2644.000000	101.296224
2642.000000	101.330541
2640.000000	101.365127
2638.000000	101.398094
2636.000000	101.432746
2634.000000	101.465375
2632.000000	101.496918
2630.000000	101.525961
2628.000000	101.555420
2626.000000	101.582422
2624.000000	101.609970
2622.000000	101.635453
2620.000000	101.662654
2618.000000	101.689774
2616.000000	101.717325
2614.000000	101.741355
2612.000000	101.764537
2610.000000	101.785150
2608.000000	101.804763
2606.000000	101.820525
2604.000000	101.835101
2602.000000	101.846750
2600.000000	101.858285
2598.000000	101.867449
2596.000000	101.878505
2594.000000	101.891374
2592.000000	101.912913
2590.000000	101.944964
2588.000000	101.988028
2586.000000	102.037315
2584.000000	102.095882
2582.000000	102.157941
2580.000000	102.220681
2578.000000	102.277769
2576.000000	102.330292
2574.000000	102.377589
2572.000000	102.421133
2570.000000	102.459326
2568.000000	102.496814
2566.000000	102.530063
2564.000000	102.562712
2562.000000	102.592042
2560.000000	102.620822
2558.000000	102.647823
2556.000000	102.675993
2554.000000	102.702333
2552.000000	102.729544
2550.000000	102.753665
2548.000000	102.778913
2546.000000	102.804621
2544.000000	102.831827
2542.000000	102.856311
2540.000000	102.881963
2538.000000	102.907777
2536.000000	102.934901
2534.000000	102.959694
2532.000000	102.986059
2530.000000	103.010484
2528.000000	103.035497
2526.000000	103.059523
2524.000000	103.084350
2522.000000	103.106667
2520.000000	103.130787
2518.000000	103.154037
2516.000000	103.177356
2514.000000	103.198099
2512.000000	103.220026
2510.000000	103.240284
2508.000000	103.262682
2506.000000	103.283303
2504.000000	103.304950
2502.000000	103.325498
2500.000000	103.348310
2498.000000	103.371408
2496.000000	103.397255
2494.000000	103.421653
2492.000000	103.448218
2490.000000	103.473734
2488.000000	103.499939
2486.000000	103.524891
2484.000000	103.551262
2482.000000	103.576200
2480.000000	103.601631
2478.000000	103.623408
2476.000000	103.646313
2474.000000	103.666505
2472.000000	103.685810
2470.000000	103.703746
2468.000000	103.722732
2466.000000	103.738348
2464.000000	103.755061
2462.000000	103.769936
2460.000000	103.785774
2458.000000	103.799784
2456.000000	103.817540
2454.000000	103.834282
2452.000000	103.850821
2450.000000	103.865019
2448.000000	103.881897
2446.000000	103.897376
2444.000000	103.914449
2442.000000	103.928787
2440.000000	103.943929
2438.000000	103.957021
2436.000000	103.971415
2434.000000	103.984245
2432.000000	103.997782
2430.000000	104.006952
2428.000000	104.017020
2426.000000	104.029737
2424.000000	104.047266
2422.000000	104.062252
2420.000000	104.076578
2418.000000	104.086909
2416.000000	104.098378
2414.000000	104.109100
2412.000000	104.121908
2410.000000	104.132231
2408.000000	104.144675
2406.000000	104.157998
2404.000000	104.174039
2402.000000	104.187065
2400.000000	104.202542
2398.000000	104.217462
2396.000000	104.236270
2394.000000	104.252747
2392.000000	104.269015
2390.000000	104.283027
2388.000000	104.295257
2386.000000	104.296366
2384.000000	104.282261
2382.000000	104.236318
2380.000000	104.149083
2378.000000	104.008054
2376.000000	103.812280
2374.000000	103.560356
2372.000000	103.268904
2370.000000	102.959364
2368.000000	102.666157
2366.000000	102.419823
2364.000000	102.256681
2362.000000	102.200074
2360.000000	102.266286
2358.000000	102.452901
2356.000000	102.754120
2354.000000	103.144900
2352.000000	103.582357
2350.000000	103.900567
2348.000000	103.882242
2346.000000	103.594152
2344.000000	103.288667
2342.000000	103.067313
2340.000000	102.941046
2338.000000	102.885813
2336.000000	102.883713
2334.000000	102.919589
2332.000000	102.992115
2330.000000	103.096178
2328.000000	103.228800
2326.000000	103.372100
2324.000000	103.521233
2322.000000	103.667878
2320.000000	103.810809
2318.000000	103.940840
2316.000000	104.058619
2314.000000	104.158213
2312.000000	104.246318
2310.000000	104.319093
2308.000000	104.381605
2306.000000	104.431093
2304.000000	104.472712
2302.000000	104.504273
2300.000000	104.533425
2298.000000	104.557674
2296.000000	104.580267
2294.000000	104.596395
2292.000000	104.611866
2290.000000	104.624742
2288.000000	104.638918
2286.000000	104.646950
2284.000000	104.653261
2282.000000	104.653664
2280.000000	104.651601
2278.000000	104.644682
2276.000000	104.641338
2274.000000	104.634610
2272.000000	104.628430
2270.000000	104.622276
2268.000000	104.618582
2266.000000	104.611679
2264.000000	104.608582
2262.000000	104.604628
2260.000000	104.603598
2258.000000	104.602183
2256.000000	104.603082
2254.000000	104.602132
2252.000000	104.606337
2250.000000	104.610738
2248.000000	104.620180
2246.000000	104.627889
2244.000000	104.639744
2242.000000	104.651594
2240.000000	104.665410
2238.000000	104.677151
2236.000000	104.692167
2234.000000	104.702823
2232.000000	104.715983
2230.000000	104.728006
2228.000000	104.741708
2226.000000	104.751129
2224.000000	104.762227
2222.000000	104.769637
2220.000000	104.778004
2218.000000	104.784107
2216.000000	104.791831
2214.000000	104.795286
2212.000000	104.802322
2210.000000	104.806357
2208.000000	104.811655
2206.000000	104.814983
2204.000000	104.821367
2202.000000	104.824683
2200.000000	104.829694
2198.000000	104.831153
2196.000000	104.834384
2194.000000	104.834952
2192.000000	104.838091
2190.000000	104.836893
2188.000000	104.837618
2186.000000	104.835476
2184.000000	104.834919
2182.000000	104.830933
2180.000000	104.831711
2178.000000	104.830261
2176.000000	104.827448
2174.000000	104.816829
2172.000000	104.793898
2170.000000	104.766830
2168.000000	104.778150
2166.000000	104.800985
2164.000000	104.809865
2162.000000	104.806574
2160.000000	104.806004
2158.000000	104.802838
2156.000000	104.804274
2154.000000	104.803210
2152.000000	104.802776
2150.000000	104.798527
2148.000000	104.798005
2146.000000	104.795830
2144.000000	104.796404
2142.000000	104.792083
2140.000000	104.790298
2138.000000	104.785524
2136.000000	104.783533
2134.000000	104.782168
2132.000000	104.784217
2130.000000	104.782058
2128.000000	104.781694
2126.000000	104.779152
2124.000000	104.779550
2122.000000	104.778787
2120.000000	104.782307
2118.000000	104.783860
2116.000000	104.785946
2114.000000	104.790282
2112.000000	104.801584
2110.000000	104.810534
2108.000000	104.823336
2106.000000	104.835773
2104.000000	104.850228
2102.000000	104.859115
2100.000000	104.870903
2098.000000	104.881590
2096.000000	104.896818
2094.000000	104.908184
2092.000000	104.918850
2090.000000	104.925448
2088.000000	104.944129
2086.000000	104.960426
2084.000000	104.979622
2082.000000	104.992938
2080.000000	105.009854
2078.000000	105.021983
2076.000000	105.038720
2074.000000	105.052401
2072.000000	105.072602
2070.000000	105.090726
2068.000000	105.105662
2066.000000	105.107758
2064.000000	105.131750
2062.000000	105.165055
2060.000000	105.191782
2058.000000	105.211453
2056.000000	105.234286
2054.000000	105.252530
2052.000000	105.273917
2050.000000	105.292114
2048.000000	105.314258
2046.000000	105.330176
2044.000000	105.343611
2042.000000	105.348757
2040.000000	105.371727
2038.000000	105.396215
2036.000000	105.412644
2034.000000	105.419021
2032.000000	105.419216
2030.000000	105.400124
2028.000000	105.410078
2026.000000	105.443292
2024.000000	105.466415
2022.000000	105.473883
2020.000000	105.467879
2018.000000	105.449128
2016.000000	105.477291
2014.000000	105.526102
2012.000000	105.555045
2010.000000	105.568710
2008.000000	105.584898
2006.000000	105.597882
2004.000000	105.610857
2002.000000	105.614454
2000.000000	105.617712
1998.000000	105.620429
1996.000000	105.619407
1994.000000	105.559798
1992.000000	105.508391
1990.000000	105.547790
1988.000000	105.592805
1986.000000	105.608188
1984.000000	105.610443
1982.000000	105.599096
1980.000000	105.589090
1978.000000	105.574606
1976.000000	105.561285
1974.000000	105.543940
1972.000000	105.524918
1970.000000	105.476109
1968.000000	105.402464
1966.000000	105.387681
1964.000000	105.410066
1962.000000	105.357604
1960.000000	105.236600
1958.000000	105.204449
1956.000000	105.282636
1954.000000	105.309405
1952.000000	105.295383
1950.000000	105.260867
1948.000000	105.230598
1946.000000	105.166946
1944.000000	105.043824
1942.000000	104.997646
1940.000000	105.101120
1938.000000	105.138266
1936.000000	105.120322
1934.000000	105.087291
1932.000000	105.063392
1930.000000	105.034441
1928.000000	105.007144
1926.000000	104.935968
1924.000000	104.814465
1922.000000	104.749807
1920.000000	104.626416
1918.000000	104.465333
1916.000000	104.608163
1914.000000	104.711635
1912.000000	104.647873
1910.000000	104.540853
1908.000000	104.507044
1906.000000	104.489952
1904.000000	104.455541
1902.000000	104.401827
1900.000000	104.359866
1898.000000	104.286786
1896.000000	104.203970
1894.000000	104.169071
1892.000000	104.104756
1890.000000	103.960808
1888.000000	104.018328
1886.000000	104.107172
1884.000000	104.114150
1882.000000	104.097683
1880.000000	104.082204
1878.000000	104.053396
1876.000000	104.034886
1874.000000	103.989642
1872.000000	103.802431
1870.000000	103.417685
1868.000000	103.381041
1866.000000	103.664775
1864.000000	103.815370
1862.000000	103.802382
1860.000000	103.769307
1858.000000	103.735929
1856.000000	103.719041
1854.000000	103.682172
1852.000000	103.643056
1850.000000	103.547972
1848.000000	103.357562
1846.000000	102.818327
1844.000000	102.493299
1842.000000	102.972752
1840.000000	103.302266
1838.000000	103.250939
1836.000000	103.201119
1834.000000	103.124175
1832.000000	102.797102
1830.000000	102.466272
1828.000000	102.554165
1826.000000	102.523360
1824.000000	102.558550
1822.000000	102.726475
1820.000000	102.721554
1818.000000	102.625950
1816.000000	102.569038
1814.000000	102.467301
1812.000000	102.264730
1810.000000	102.147005
1808.000000	102.163785
1806.000000	102.110512
1804.000000	101.909181
1802.000000	101.582035
1800.000000	101.436067
1798.000000	101.481818
1796.000000	101.343702
1794.000000	100.692940
1792.000000	100.346334
1790.000000	100.787207
1788.000000	101.039182
1786.000000	100.803599
1784.000000	100.653326
1782.000000	100.568472
1780.000000	100.469827
1778.000000	100.436987
1776.000000	100.103970
1774.000000	99.167696
1772.000000	98.710229
1770.000000	99.177942
1768.000000	99.456971
1766.000000	99.736744
1764.000000	99.569550
1762.000000	99.142513
1760.000000	99.215876
1758.000000	99.153965
1756.000000	99.024144
1754.000000	98.800858
1752.000000	97.993874
1750.000000	97.749242
1748.000000	98.043884
1746.000000	98.168964
1744.000000	98.033410
1742.000000	97.649643
1740.000000	97.272283
1738.000000	97.261983
1736.000000	96.238891
1734.000000	95.189535
1732.000000	96.221761
1730.000000	97.203971
1728.000000	97.461805
1726.000000	97.472734
1724.000000	97.366108
1722.000000	97.167293
1720.000000	96.172309
1718.000000	94.796176
1716.000000	95.081093
1714.000000	96.133095
1712.000000	96.672390
1710.000000	96.636440
1708.000000	96.265979
1706.000000	95.800550
1704.000000	95.555747
1702.000000	94.260209
1700.000000	93.300074
1698.000000	93.679093
1696.000000	93.595921
1694.000000	94.826669
1692.000000	95.908569
1690.000000	95.843537
1688.000000	95.308105
1686.000000	93.549204
1684.000000	92.885516
1682.000000	94.485350
1680.000000	95.416107
1678.000000	95.227331
1676.000000	94.477099
1674.000000	94.489513
1672.000000	94.577689
1670.000000	94.119040
1668.000000	94.427859
1666.000000	94.875573
1664.000000	94.511240
1662.000000	94.338784
1660.000000	94.656792
1658.000000	94.563850
1656.000000	93.103984
1654.000000	90.377444
1652.000000	90.605958
1650.000000	92.788878
1648.000000	92.659825
1646.000000	92.285872
1644.000000	93.136757
1642.000000	93.642450
1640.000000	93.388797
1638.000000	92.392781
1636.000000	91.228142
1634.000000	91.787605
1632.000000	92.694038
1630.000000	92.542262
1628.000000	92.098711
1626.000000	91.662992
1624.000000	91.000119
1622.000000	90.725065
1620.000000	90.373667
1618.000000	89.012864
1616.000000	88.459772
1614.000000	89.029651
1612.000000	88.782398
1610.000000	88.139810
1608.000000	87.814153
1606.000000	87.868557
1604.000000	88.068731
1602.000000	88.318405
1600.000000	88.569837
1598.000000	88.778923
1596.000000	88.909388
1594.000000	89.022654
1592.000000	89.102368
1590.000000	89.115226
1588.000000	89.085012
1586.000000	89.020141
1584.000000	88.942381
1582.000000	88.886016
1580.000000	88.681816
1578.000000	87.603573
1576.000000	86.846746
1574.000000	87.848820
1572.000000	88.176148
1570.000000	87.624968
1568.000000	87.741681
1566.000000	87.886474
1564.000000	87.554930
1562.000000	86.118720
1560.000000	83.725050
1558.000000	83.774258
1556.000000	85.502956
1554.000000	86.436865
1552.000000	87.136796
1550.000000	87.515458
1548.000000	87.702107
1546.000000	87.453563
1544.000000	86.863433
1542.000000	85.854496
1540.000000	85.286642
1538.000000	86.816101
1536.000000	88.328434
1534.000000	88.322450
1532.000000	88.700739
1530.000000	89.094839
1528.000000	88.843395
1526.000000	88.459632
1524.000000	87.985719
1522.000000	87.103947
1520.000000	87.293186
1518.000000	87.820739
1516.000000	87.884368
1514.000000	87.951574
1512.000000	87.737978
1510.000000	87.055539
1508.000000	85.307469
1506.000000	84.506173
1504.000000	85.411504
1502.000000	84.981140
1500.000000	82.422265
1498.000000	78.913138
1496.000000	76.391768
1494.000000	76.244878
1492.000000	77.327407
1490.000000	78.939737
1488.000000	80.952542
1486.000000	82.703301
1484.000000	83.853017
1482.000000	84.364786
1480.000000	84.599216
1478.000000	84.441478
1476.000000	83.911812
1474.000000	83.136830
1472.000000	82.967364
1470.000000	83.556898
1468.000000	83.537526
1466.000000	82.796526
1464.000000	82.401474
1462.000000	82.259786
1460.000000	81.095971
1458.000000	78.942982
1456.000000	77.971279
1454.000000	78.176043
1452.000000	77.904648
1450.000000	77.949760
1448.000000	78.724191
1446.000000	79.773261
1444.000000	80.326601
1442.000000	80.453611
1440.000000	80.269861
1438.000000	79.592900
1436.000000	79.497886
1434.000000	80.243935
1432.000000	80.409935
1430.000000	80.313970
1428.000000	80.387095
1426.000000	80.412121
1424.000000	80.261153
1422.000000	79.921966
1420.000000	79.138936
1418.000000	79.147814
1416.000000	79.605953
1414.000000	79.593930
1412.000000	79.243992
1410.000000	78.722882
1408.000000	77.955520
1406.000000	77.081141
1404.000000	76.611301
1402.000000	76.647066
1400.000000	76.774579
1398.000000	77.162904
1396.000000	77.497888
1394.000000	77.839373
1392.000000	78.317574
1390.000000	78.323968
1388.000000	77.888852
1386.000000	77.666075
1384.000000	77.689037
1382.000000	77.812637
1380.000000	77.899238
1378.000000	77.829201
1376.000000	77.615448
1374.000000	77.442460
1372.000000	77.470747
1370.000000	77.412841
1368.000000	77.258500
1366.000000	77.090781
1364.000000	76.782448
1362.000000	76.568046
1360.000000	76.546726
1358.000000	76.469216
1356.000000	76.278811
1354.000000	76.075010
1352.000000	75.874388
1350.000000	75.658262
1348.000000	75.440261
1346.000000	75.215680
1344.000000	74.962802
1342.000000	74.651263
1340.000000	74.343559
1338.000000	74.217183
1336.000000	74.192307
1334.000000	74.126389
1332.000000	73.980679
1330.000000	73.788908
1328.000000	73.565886
1326.000000	73.323409
1324.000000	73.058358
1322.000000	72.766473
1320.000000	72.443201
1318.000000	72.142613
1316.000000	71.856254
1314.000000	71.546534
1312.000000	71.236127
1310.000000	70.933400
1308.000000	70.609052
1306.000000	70.280804
1304.000000	69.941533
1302.000000	69.597196
1300.000000	69.249706
1298.000000	68.903343
1296.000000	68.547768
1294.000000	68.183430
1292.000000	67.797265
1290.000000	67.398950
1288.000000	66.995582
1286.000000	66.599515
1284.000000	66.188858
1282.000000	65.756475
1280.000000	65.297738
1278.000000	64.810156
1276.000000	64.270981
1274.000000	63.654819
1272.000000	62.921202
1270.000000	62.033242
1268.000000	60.927267
1266.000000	59.606913
1264.000000	58.232784
1262.000000	57.127993
1260.000000	56.574796
1258.000000	56.584194
1256.000000	56.876991
1254.000000	57.123335
1252.000000	57.121972
1250.000000	56.878384
1248.000000	56.482936
1246.000000	56.012000
1244.000000	55.501341
1242.000000	54.985443
1240.000000	54.475415
1238.000000	53.983283
1236.000000	53.505173
1234.000000	53.041308
1232.000000	52.586271
1230.000000	52.140376
1228.000000	51.693183
1226.000000	51.241214
1224.000000	50.779841
1222.000000	50.308181
1220.000000	49.814688
1218.000000	49.303430
1216.000000	48.781655
1214.000000	48.266696
1212.000000	47.772371
1210.000000	47.317946
1208.000000	46.898341
1206.000000	46.500495
1204.000000	46.104366
1202.000000	45.704747
1200.000000	45.307737
1198.000000	44.920259
1196.000000	44.527686
1194.000000	44.122038
1192.000000	43.702673
1190.000000	43.274217
1188.000000	42.829473
1186.000000	42.356147
1184.000000	41.773016
1182.000000	41.045902
1180.000000	40.476738
1178.000000	40.227254
1176.000000	39.995650
1174.000000	39.639938
1172.000000	39.212340
1170.000000	38.761876
1168.000000	38.295642
1166.000000	37.822762
1164.000000	37.349700
1162.000000	36.886270
1160.000000	36.430059
1158.000000	35.994722
1156.000000	35.572787
1154.000000	35.153826
1152.000000	34.728851
1150.000000	34.306891
1148.000000	33.875977
1146.000000	33.437644
1144.000000	33.008235
1142.000000	32.629839
1140.000000	32.316902
1138.000000	32.003091
1136.000000	31.643173
1134.000000	31.251535
1132.000000	30.835631
1130.000000	30.407969
1128.000000	29.984010
1126.000000	29.566383
1124.000000	29.138257
1122.000000	28.698518
1120.000000	28.247348
1118.000000	27.790723
1116.000000	27.324918
1114.000000	26.855905
1112.000000	26.388751
1110.000000	25.927146
1108.000000	25.470845
1106.000000	25.033545
1104.000000	24.616062
1102.000000	24.205475
1100.000000	23.792061
1098.000000	23.385108
1096.000000	22.986942
1094.000000	22.603629
1092.000000	22.236346
1090.000000	21.885193
1088.000000	21.541980
1086.000000	21.204678
1084.000000	20.857697
1082.000000	20.500570
1080.000000	20.163173
1078.000000	19.858652
1076.000000	19.580097
1074.000000	19.347272
1072.000000	19.132545
1070.000000	18.907241
1068.000000	18.674988
1066.000000	18.445489
1064.000000	18.214253
1062.000000	17.979484
1060.000000	17.731973
1058.000000	17.445045
1056.000000	17.055158
1054.000000	16.540728
1052.000000	16.032864
1050.000000	15.734354
1048.000000	15.699652
1046.000000	15.781816
1044.000000	15.784896
1042.000000	15.668240
1040.000000	15.483042
1038.000000	15.272272
1036.000000	15.045553
1034.000000	14.806491
1032.000000	14.556362
1030.000000	14.299750
1028.000000	14.034992
1026.000000	13.765472
1024.000000	13.492430
1022.000000	13.224065
1020.000000	12.969629
1018.000000	12.735563
1016.000000	12.522370
1014.000000	12.332687
1012.000000	12.160954
1010.000000	12.000628
1008.000000	11.835600
1006.000000	11.657147
1004.000000	11.462031
1002.000000	11.251443
1000.000000	11.023981
