PE IR       SUBTECH     SPECTRUM    ASCII       PEDS        4.00        
   -1
TE110A_011_80K_BG.ASC
20/05/14
11:55:36.00
20/05/14
11:55:36.00
Administrator
TE108A.Thursday, May 14 2020, 006.
1000.000000
#HDR
-1
-1
#GR
cm-1
EGY
1.0
0.0
6000.000000
-2.000000
2501
8
105.650426
11.020528
#DATA
6000.000000	16.768133
5998.000000	16.801450
5996.000000	16.833983
5994.000000	16.866971
5992.000000	16.900660
5990.000000	16.934006
5988.000000	16.966724
5986.000000	16.998829
5984.000000	17.031935
5982.000000	17.066242
5980.000000	17.099609
5978.000000	17.132759
5976.000000	17.165776
5974.000000	17.199435
5972.000000	17.233440
5970.000000	17.268197
5968.000000	17.303204
5966.000000	17.337582
5964.000000	17.371482
5962.000000	17.406525
5960.000000	17.442181
5958.000000	17.477478
5956.000000	17.510882
5954.000000	17.544261
5952.000000	17.577606
5950.000000	17.612592
5948.000000	17.647313
5946.000000	17.681256
5944.000000	17.714380
5942.000000	17.748389
5940.000000	17.782842
5938.000000	17.817614
5936.000000	17.852067
5934.000000	17.886501
5932.000000	17.921277
5930.000000	17.954803
5928.000000	17.987697
5926.000000	18.021703
5924.000000	18.056516
5922.000000	18.092677
5920.000000	18.128996
5918.000000	18.165515
5916.000000	18.202267
5914.000000	18.239339
5912.000000	18.276347
5910.000000	18.313412
5908.000000	18.350207
5906.000000	18.386255
5904.000000	18.421772
5902.000000	18.458834
5900.000000	18.496358
5898.000000	18.534129
5896.000000	18.570010
5894.000000	18.605073
5892.000000	18.641868
5890.000000	18.680067
5888.000000	18.717479
5886.000000	18.752828
5884.000000	18.786811
5882.000000	18.822281
5880.000000	18.859057
5878.000000	18.895891
5876.000000	18.931455
5874.000000	18.968366
5872.000000	19.005748
5870.000000	19.042914
5868.000000	19.079350
5866.000000	19.116942
5864.000000	19.155059
5862.000000	19.193317
5860.000000	19.230602
5858.000000	19.267901
5856.000000	19.305818
5854.000000	19.344237
5852.000000	19.383355
5850.000000	19.423296
5848.000000	19.462858
5846.000000	19.502945
5844.000000	19.543034
5842.000000	19.583075
5840.000000	19.623540
5838.000000	19.665007
5836.000000	19.706965
5834.000000	19.749293
5832.000000	19.790947
5830.000000	19.832311
5828.000000	19.874376
5826.000000	19.916595
5824.000000	19.958403
5822.000000	19.999707
5820.000000	20.040152
5818.000000	20.081961
5816.000000	20.122847
5814.000000	20.163448
5812.000000	20.203627
5810.000000	20.244149
5808.000000	20.285456
5806.000000	20.327041
5804.000000	20.367981
5802.000000	20.408290
5800.000000	20.447738
5798.000000	20.488422
5796.000000	20.529526
5794.000000	20.571218
5792.000000	20.612934
5790.000000	20.655495
5788.000000	20.697571
5786.000000	20.739313
5784.000000	20.780442
5782.000000	20.822545
5780.000000	20.865011
5778.000000	20.906990
5776.000000	20.949002
5774.000000	20.990926
5772.000000	21.033009
5770.000000	21.075954
5768.000000	21.118298
5766.000000	21.160800
5764.000000	21.203275
5762.000000	21.245336
5760.000000	21.287463
5758.000000	21.329139
5756.000000	21.371125
5754.000000	21.413156
5752.000000	21.454429
5750.000000	21.495804
5748.000000	21.537617
5746.000000	21.579805
5744.000000	21.621381
5742.000000	21.662693
5740.000000	21.703897
5738.000000	21.745457
5736.000000	21.786320
5734.000000	21.826162
5732.000000	21.865793
5730.000000	21.906317
5728.000000	21.947145
5726.000000	21.988682
5724.000000	22.030084
5722.000000	22.071812
5720.000000	22.114751
5718.000000	22.158212
5716.000000	22.202835
5714.000000	22.247014
5712.000000	22.290794
5710.000000	22.334381
5708.000000	22.377640
5706.000000	22.421482
5704.000000	22.466063
5702.000000	22.510690
5700.000000	22.555481
5698.000000	22.600613
5696.000000	22.645754
5694.000000	22.691665
5692.000000	22.737685
5690.000000	22.785078
5688.000000	22.831207
5686.000000	22.875373
5684.000000	22.919305
5682.000000	22.964667
5680.000000	23.011371
5678.000000	23.057097
5676.000000	23.101917
5674.000000	23.147082
5672.000000	23.192738
5670.000000	23.239072
5668.000000	23.284848
5666.000000	23.330604
5664.000000	23.376342
5662.000000	23.422332
5660.000000	23.469221
5658.000000	23.515095
5656.000000	23.560293
5654.000000	23.605625
5652.000000	23.650680
5650.000000	23.696491
5648.000000	23.741702
5646.000000	23.787044
5644.000000	23.832632
5642.000000	23.878921
5640.000000	23.926123
5638.000000	23.972522
5636.000000	24.017914
5634.000000	24.063365
5632.000000	24.109155
5630.000000	24.154938
5628.000000	24.200147
5626.000000	24.246193
5624.000000	24.293442
5622.000000	24.340025
5620.000000	24.385144
5618.000000	24.429267
5616.000000	24.474412
5614.000000	24.520622
5612.000000	24.566996
5610.000000	24.613371
5608.000000	24.659230
5606.000000	24.704130
5604.000000	24.748575
5602.000000	24.794472
5600.000000	24.842332
5598.000000	24.890859
5596.000000	24.937547
5594.000000	24.983193
5592.000000	25.028741
5590.000000	25.075287
5588.000000	25.122541
5586.000000	25.170014
5584.000000	25.217718
5582.000000	25.265284
5580.000000	25.312088
5578.000000	25.359006
5576.000000	25.406474
5574.000000	25.454888
5572.000000	25.503275
5570.000000	25.550794
5568.000000	25.598504
5566.000000	25.647151
5564.000000	25.696273
5562.000000	25.744986
5560.000000	25.792703
5558.000000	25.840265
5556.000000	25.887121
5554.000000	25.933980
5552.000000	25.981378
5550.000000	26.029435
5548.000000	26.077241
5546.000000	26.124913
5544.000000	26.173293
5542.000000	26.221480
5540.000000	26.268712
5538.000000	26.315516
5536.000000	26.363424
5534.000000	26.411921
5532.000000	26.459512
5530.000000	26.507352
5528.000000	26.555969
5526.000000	26.604020
5524.000000	26.649660
5522.000000	26.695304
5520.000000	26.742614
5518.000000	26.791872
5516.000000	26.840781
5514.000000	26.889442
5512.000000	26.936336
5510.000000	26.980641
5508.000000	27.025054
5506.000000	27.073590
5504.000000	27.125721
5502.000000	27.176447
5500.000000	27.223807
5498.000000	27.267985
5496.000000	27.307753
5494.000000	27.348512
5492.000000	27.394520
5490.000000	27.449418
5488.000000	27.507909
5486.000000	27.564974
5484.000000	27.619457
5482.000000	27.669577
5480.000000	27.710939
5478.000000	27.745143
5476.000000	27.786024
5474.000000	27.840716
5472.000000	27.900559
5470.000000	27.953155
5468.000000	28.000487
5466.000000	28.047440
5464.000000	28.091471
5462.000000	28.136786
5460.000000	28.188640
5458.000000	28.246230
5456.000000	28.303608
5454.000000	28.354714
5452.000000	28.398667
5450.000000	28.435254
5448.000000	28.470860
5446.000000	28.513333
5444.000000	28.560867
5442.000000	28.616687
5440.000000	28.674111
5438.000000	28.725407
5436.000000	28.771327
5434.000000	28.815271
5432.000000	28.858514
5430.000000	28.903849
5428.000000	28.960464
5426.000000	29.029549
5424.000000	29.096059
5422.000000	29.153458
5420.000000	29.202788
5418.000000	29.235113
5416.000000	29.254599
5414.000000	29.281400
5412.000000	29.331921
5410.000000	29.401730
5408.000000	29.471640
5406.000000	29.535081
5404.000000	29.592058
5402.000000	29.645162
5400.000000	29.690631
5398.000000	29.724063
5396.000000	29.754495
5394.000000	29.801566
5392.000000	29.866783
5390.000000	29.929571
5388.000000	29.975831
5386.000000	30.020831
5384.000000	30.078216
5382.000000	30.137378
5380.000000	30.178061
5378.000000	30.211539
5376.000000	30.259483
5374.000000	30.327841
5372.000000	30.399372
5370.000000	30.460540
5368.000000	30.510641
5366.000000	30.555576
5364.000000	30.603808
5362.000000	30.659565
5360.000000	30.715255
5358.000000	30.755901
5356.000000	30.782698
5354.000000	30.818482
5352.000000	30.872537
5350.000000	30.930966
5348.000000	30.969799
5346.000000	31.003605
5344.000000	31.051158
5342.000000	31.103655
5340.000000	31.151566
5338.000000	31.205475
5336.000000	31.274925
5334.000000	31.345762
5332.000000	31.400556
5330.000000	31.444444
5328.000000	31.492218
5326.000000	31.550806
5324.000000	31.616465
5322.000000	31.677178
5320.000000	31.729006
5318.000000	31.777695
5316.000000	31.827714
5314.000000	31.880783
5312.000000	31.929226
5310.000000	31.970465
5308.000000	32.014637
5306.000000	32.068635
5304.000000	32.127067
5302.000000	32.181762
5300.000000	32.234746
5298.000000	32.289524
5296.000000	32.342369
5294.000000	32.385936
5292.000000	32.425485
5290.000000	32.473942
5288.000000	32.531631
5286.000000	32.590484
5284.000000	32.644648
5282.000000	32.699084
5280.000000	32.756024
5278.000000	32.813202
5276.000000	32.868760
5274.000000	32.920633
5272.000000	32.968087
5270.000000	33.012939
5268.000000	33.049533
5266.000000	33.082465
5264.000000	33.125707
5262.000000	33.189570
5260.000000	33.260081
5258.000000	33.314147
5256.000000	33.359542
5254.000000	33.412272
5252.000000	33.464501
5250.000000	33.505505
5248.000000	33.544038
5246.000000	33.598271
5244.000000	33.666941
5242.000000	33.736727
5240.000000	33.801779
5238.000000	33.857533
5236.000000	33.906147
5234.000000	33.951091
5232.000000	33.999332
5230.000000	34.046843
5228.000000	34.087896
5226.000000	34.132265
5224.000000	34.191296
5222.000000	34.257063
5220.000000	34.315598
5218.000000	34.371084
5216.000000	34.429482
5214.000000	34.485282
5212.000000	34.527606
5210.000000	34.555272
5208.000000	34.587491
5206.000000	34.645186
5204.000000	34.722331
5202.000000	34.794558
5200.000000	34.848675
5198.000000	34.897994
5196.000000	34.953477
5194.000000	35.014263
5192.000000	35.070826
5190.000000	35.121063
5188.000000	35.168538
5186.000000	35.219566
5184.000000	35.275568
5182.000000	35.335361
5180.000000	35.393501
5178.000000	35.450399
5176.000000	35.507199
5174.000000	35.562491
5172.000000	35.616273
5170.000000	35.671414
5168.000000	35.726685
5166.000000	35.779332
5164.000000	35.831102
5162.000000	35.886212
5160.000000	35.941785
5158.000000	35.995758
5156.000000	36.050575
5154.000000	36.107807
5152.000000	36.166289
5150.000000	36.223055
5148.000000	36.278171
5146.000000	36.331109
5144.000000	36.382500
5142.000000	36.435841
5140.000000	36.491019
5138.000000	36.547192
5136.000000	36.601281
5134.000000	36.654936
5132.000000	36.709084
5130.000000	36.764661
5128.000000	36.820904
5126.000000	36.876178
5124.000000	36.929647
5122.000000	36.982442
5120.000000	37.036000
5118.000000	37.091255
5116.000000	37.147197
5114.000000	37.202509
5112.000000	37.256590
5110.000000	37.311229
5108.000000	37.366468
5106.000000	37.422871
5104.000000	37.479309
5102.000000	37.535254
5100.000000	37.590139
5098.000000	37.645066
5096.000000	37.701212
5094.000000	37.758839
5092.000000	37.816294
5090.000000	37.872985
5088.000000	37.929047
5086.000000	37.985514
5084.000000	38.041355
5082.000000	38.098372
5080.000000	38.156377
5078.000000	38.213851
5076.000000	38.269957
5074.000000	38.326434
5072.000000	38.383954
5070.000000	38.441019
5068.000000	38.497571
5066.000000	38.554593
5064.000000	38.611592
5062.000000	38.667811
5060.000000	38.724437
5058.000000	38.782172
5056.000000	38.839160
5054.000000	38.895561
5052.000000	38.951942
5050.000000	39.008366
5048.000000	39.063970
5046.000000	39.120295
5044.000000	39.176078
5042.000000	39.231551
5040.000000	39.287432
5038.000000	39.344488
5036.000000	39.400936
5034.000000	39.456418
5032.000000	39.511175
5030.000000	39.567442
5028.000000	39.624711
5026.000000	39.681608
5024.000000	39.737018
5022.000000	39.793009
5020.000000	39.850057
5018.000000	39.907712
5016.000000	39.964638
5014.000000	40.021811
5012.000000	40.078996
5010.000000	40.136346
5008.000000	40.192965
5006.000000	40.249378
5004.000000	40.305996
5002.000000	40.364147
5000.000000	40.423319
4998.000000	40.482424
4996.000000	40.539798
4994.000000	40.597217
4992.000000	40.654843
4990.000000	40.713629
4988.000000	40.772780
4986.000000	40.832664
4984.000000	40.892026
4982.000000	40.951454
4980.000000	41.009637
4978.000000	41.066526
4976.000000	41.123018
4974.000000	41.181469
4972.000000	41.240214
4970.000000	41.298406
4968.000000	41.356634
4966.000000	41.415309
4964.000000	41.473003
4962.000000	41.530132
4960.000000	41.587751
4958.000000	41.645231
4956.000000	41.702442
4954.000000	41.760306
4952.000000	41.817542
4950.000000	41.873932
4948.000000	41.930791
4946.000000	41.988254
4944.000000	42.044793
4942.000000	42.102200
4940.000000	42.160100
4938.000000	42.217514
4936.000000	42.273879
4934.000000	42.330510
4932.000000	42.387426
4930.000000	42.444488
4928.000000	42.501506
4926.000000	42.559112
4924.000000	42.617372
4922.000000	42.674972
4920.000000	42.731405
4918.000000	42.788416
4916.000000	42.845671
4914.000000	42.903937
4912.000000	42.962099
4910.000000	43.020754
4908.000000	43.079199
4906.000000	43.138393
4904.000000	43.197146
4902.000000	43.256284
4900.000000	43.315994
4898.000000	43.376085
4896.000000	43.435140
4894.000000	43.494017
4892.000000	43.552852
4890.000000	43.612448
4888.000000	43.672215
4886.000000	43.732018
4884.000000	43.791219
4882.000000	43.850439
4880.000000	43.909471
4878.000000	43.968869
4876.000000	44.027770
4874.000000	44.087350
4872.000000	44.147032
4870.000000	44.206625
4868.000000	44.264916
4866.000000	44.323174
4864.000000	44.381730
4862.000000	44.441723
4860.000000	44.501348
4858.000000	44.559479
4856.000000	44.616266
4854.000000	44.674105
4852.000000	44.732200
4850.000000	44.790372
4848.000000	44.848315
4846.000000	44.906374
4844.000000	44.963891
4842.000000	45.022292
4840.000000	45.081138
4838.000000	45.138909
4836.000000	45.195693
4834.000000	45.253390
4832.000000	45.310964
4830.000000	45.368853
4828.000000	45.427557
4826.000000	45.486626
4824.000000	45.544394
4822.000000	45.602970
4820.000000	45.662194
4818.000000	45.721829
4816.000000	45.780755
4814.000000	45.839381
4812.000000	45.897891
4810.000000	45.957829
4808.000000	46.018311
4806.000000	46.078607
4804.000000	46.138198
4802.000000	46.198840
4800.000000	46.259459
4798.000000	46.319861
4796.000000	46.379543
4794.000000	46.439445
4792.000000	46.499970
4790.000000	46.561878
4788.000000	46.622760
4786.000000	46.682989
4784.000000	46.744007
4782.000000	46.805796
4780.000000	46.865547
4778.000000	46.924194
4776.000000	46.982963
4774.000000	47.043532
4772.000000	47.103882
4770.000000	47.163181
4768.000000	47.222520
4766.000000	47.283703
4764.000000	47.344341
4762.000000	47.403981
4760.000000	47.463120
4758.000000	47.522184
4756.000000	47.579770
4754.000000	47.636472
4752.000000	47.693584
4750.000000	47.752110
4748.000000	47.810786
4746.000000	47.869775
4744.000000	47.928442
4742.000000	47.986383
4740.000000	48.043209
4738.000000	48.100766
4736.000000	48.158833
4734.000000	48.217408
4732.000000	48.275848
4730.000000	48.334629
4728.000000	48.392945
4726.000000	48.452039
4724.000000	48.511717
4722.000000	48.571799
4720.000000	48.631492
4718.000000	48.692900
4716.000000	48.755701
4714.000000	48.818564
4712.000000	48.880286
4710.000000	48.942641
4708.000000	49.005608
4706.000000	49.069498
4704.000000	49.133420
4702.000000	49.197545
4700.000000	49.261195
4698.000000	49.324904
4696.000000	49.386869
4694.000000	49.448212
4692.000000	49.509518
4690.000000	49.571060
4688.000000	49.631532
4686.000000	49.692951
4684.000000	49.755227
4682.000000	49.817734
4680.000000	49.879514
4678.000000	49.941553
4676.000000	50.002617
4674.000000	50.063319
4672.000000	50.124136
4670.000000	50.185708
4668.000000	50.246641
4666.000000	50.307364
4664.000000	50.368471
4662.000000	50.430334
4660.000000	50.491735
4658.000000	50.553766
4656.000000	50.615846
4654.000000	50.676795
4652.000000	50.737216
4650.000000	50.799421
4648.000000	50.861109
4646.000000	50.922043
4644.000000	50.983170
4642.000000	51.045141
4640.000000	51.105917
4638.000000	51.166966
4636.000000	51.228552
4634.000000	51.291027
4632.000000	51.352485
4630.000000	51.412876
4628.000000	51.472656
4626.000000	51.534902
4624.000000	51.597807
4622.000000	51.660686
4620.000000	51.723428
4618.000000	51.786185
4616.000000	51.847848
4614.000000	51.910748
4612.000000	51.974766
4610.000000	52.039171
4608.000000	52.103493
4606.000000	52.169275
4604.000000	52.235620
4602.000000	52.301893
4600.000000	52.367851
4598.000000	52.433411
4596.000000	52.497490
4594.000000	52.561925
4592.000000	52.626876
4590.000000	52.691548
4588.000000	52.755832
4586.000000	52.820930
4584.000000	52.885484
4582.000000	52.949939
4580.000000	53.014461
4578.000000	53.079469
4576.000000	53.143405
4574.000000	53.207050
4572.000000	53.270846
4570.000000	53.335104
4568.000000	53.398439
4566.000000	53.462194
4564.000000	53.526112
4562.000000	53.590080
4560.000000	53.652949
4558.000000	53.715954
4556.000000	53.778800
4554.000000	53.842041
4552.000000	53.903936
4550.000000	53.965895
4548.000000	54.028735
4546.000000	54.092708
4544.000000	54.155704
4542.000000	54.218612
4540.000000	54.281256
4538.000000	54.344244
4536.000000	54.407371
4534.000000	54.471787
4532.000000	54.535469
4530.000000	54.598133
4528.000000	54.660461
4526.000000	54.723562
4524.000000	54.786277
4522.000000	54.850845
4520.000000	54.916498
4518.000000	54.982093
4516.000000	55.047115
4514.000000	55.112889
4512.000000	55.178272
4510.000000	55.243765
4508.000000	55.308593
4506.000000	55.373022
4504.000000	55.436892
4502.000000	55.501941
4500.000000	55.568082
4498.000000	55.635423
4496.000000	55.702349
4494.000000	55.768693
4492.000000	55.834280
4490.000000	55.900448
4488.000000	55.965483
4486.000000	56.030207
4484.000000	56.094324
4482.000000	56.158864
4480.000000	56.223978
4478.000000	56.289649
4476.000000	56.353113
4474.000000	56.415273
4472.000000	56.477364
4470.000000	56.541125
4468.000000	56.605390
4466.000000	56.668899
4464.000000	56.730724
4462.000000	56.792870
4460.000000	56.854987
4458.000000	56.917851
4456.000000	56.980767
4454.000000	57.043321
4452.000000	57.104190
4450.000000	57.165912
4448.000000	57.228323
4446.000000	57.291890
4444.000000	57.355021
4442.000000	57.417678
4440.000000	57.479793
4438.000000	57.542888
4436.000000	57.605744
4434.000000	57.669042
4432.000000	57.732015
4430.000000	57.795627
4428.000000	57.858955
4426.000000	57.921829
4424.000000	57.984506
4422.000000	58.048987
4420.000000	58.113766
4418.000000	58.178777
4416.000000	58.242558
4414.000000	58.306201
4412.000000	58.370722
4410.000000	58.436458
4408.000000	58.500773
4406.000000	58.565471
4404.000000	58.631242
4402.000000	58.697101
4400.000000	58.760512
4398.000000	58.824073
4396.000000	58.888223
4394.000000	58.952551
4392.000000	59.015673
4390.000000	59.079168
4388.000000	59.141814
4386.000000	59.203684
4384.000000	59.264817
4382.000000	59.327252
4380.000000	59.388318
4378.000000	59.448367
4376.000000	59.508707
4374.000000	59.570015
4372.000000	59.629688
4370.000000	59.688374
4368.000000	59.746562
4366.000000	59.807772
4364.000000	59.870292
4362.000000	59.931671
4360.000000	59.991662
4358.000000	60.053218
4356.000000	60.115470
4354.000000	60.178763
4352.000000	60.242236
4350.000000	60.306571
4348.000000	60.370302
4346.000000	60.434050
4344.000000	60.497205
4342.000000	60.560573
4340.000000	60.623641
4338.000000	60.686702
4336.000000	60.749379
4334.000000	60.814471
4332.000000	60.880371
4330.000000	60.945650
4328.000000	61.009171
4326.000000	61.073181
4324.000000	61.138965
4322.000000	61.207064
4320.000000	61.274751
4318.000000	61.342675
4316.000000	61.410718
4314.000000	61.479091
4312.000000	61.545783
4310.000000	61.612599
4308.000000	61.680692
4306.000000	61.749165
4304.000000	61.815306
4302.000000	61.880701
4300.000000	61.946820
4298.000000	62.014368
4296.000000	62.079272
4294.000000	62.142228
4292.000000	62.205810
4290.000000	62.269908
4288.000000	62.332681
4286.000000	62.395861
4284.000000	62.458091
4282.000000	62.519584
4280.000000	62.579818
4278.000000	62.639697
4276.000000	62.698966
4274.000000	62.757272
4272.000000	62.814474
4270.000000	62.874258
4268.000000	62.934590
4266.000000	62.994481
4264.000000	63.054982
4262.000000	63.117724
4260.000000	63.181219
4258.000000	63.244942
4256.000000	63.307207
4254.000000	63.370351
4252.000000	63.434472
4250.000000	63.498895
4248.000000	63.562870
4246.000000	63.627892
4244.000000	63.691981
4242.000000	63.755978
4240.000000	63.820032
4238.000000	63.884308
4236.000000	63.948314
4234.000000	64.013835
4232.000000	64.079334
4230.000000	64.145051
4228.000000	64.210032
4226.000000	64.275015
4224.000000	64.338385
4222.000000	64.401477
4220.000000	64.465069
4218.000000	64.529975
4216.000000	64.594821
4214.000000	64.660407
4212.000000	64.726010
4210.000000	64.792759
4208.000000	64.858936
4206.000000	64.925192
4204.000000	64.992342
4202.000000	65.061288
4200.000000	65.129528
4198.000000	65.198016
4196.000000	65.266702
4194.000000	65.335328
4192.000000	65.402229
4190.000000	65.469711
4188.000000	65.538286
4186.000000	65.607326
4184.000000	65.673924
4182.000000	65.740448
4180.000000	65.806798
4178.000000	65.872363
4176.000000	65.936989
4174.000000	66.002323
4172.000000	66.067221
4170.000000	66.132684
4168.000000	66.197019
4166.000000	66.261056
4164.000000	66.324670
4162.000000	66.388199
4160.000000	66.451619
4158.000000	66.516684
4156.000000	66.581489
4154.000000	66.646719
4152.000000	66.712186
4150.000000	66.777395
4148.000000	66.841055
4146.000000	66.906075
4144.000000	66.971792
4142.000000	67.037373
4140.000000	67.101853
4138.000000	67.167065
4136.000000	67.232250
4134.000000	67.298306
4132.000000	67.365359
4130.000000	67.433741
4128.000000	67.500682
4126.000000	67.565777
4124.000000	67.629601
4122.000000	67.696018
4120.000000	67.763078
4118.000000	67.829195
4116.000000	67.895446
4114.000000	67.963022
4112.000000	68.029297
4110.000000	68.094499
4108.000000	68.156566
4106.000000	68.218909
4104.000000	68.284815
4102.000000	68.352238
4100.000000	68.416907
4098.000000	68.480361
4096.000000	68.543210
4094.000000	68.608047
4092.000000	68.673675
4090.000000	68.739727
4088.000000	68.807447
4086.000000	68.879121
4084.000000	68.950111
4082.000000	69.017498
4080.000000	69.083114
4078.000000	69.150695
4076.000000	69.217617
4074.000000	69.284070
4072.000000	69.350632
4070.000000	69.417457
4068.000000	69.482398
4066.000000	69.547388
4064.000000	69.612170
4062.000000	69.676104
4060.000000	69.739947
4058.000000	69.806271
4056.000000	69.872429
4054.000000	69.937328
4052.000000	70.001626
4050.000000	70.067299
4048.000000	70.128789
4046.000000	70.186956
4044.000000	70.251153
4042.000000	70.322805
4040.000000	70.393125
4038.000000	70.461030
4036.000000	70.527496
4034.000000	70.594110
4032.000000	70.660004
4030.000000	70.726091
4028.000000	70.790887
4026.000000	70.856913
4024.000000	70.926951
4022.000000	70.997217
4020.000000	71.063444
4018.000000	71.131645
4016.000000	71.202720
4014.000000	71.272571
4012.000000	71.337754
4010.000000	71.402345
4008.000000	71.471974
4006.000000	71.546445
4004.000000	71.618292
4002.000000	71.687929
4000.000000	71.755236
3998.000000	71.817466
3996.000000	71.877306
3994.000000	71.939939
3992.000000	72.003345
3990.000000	72.071285
3988.000000	72.142339
3986.000000	72.208920
3984.000000	72.268991
3982.000000	72.329414
3980.000000	72.391825
3978.000000	72.450566
3976.000000	72.504001
3974.000000	72.562130
3972.000000	72.626900
3970.000000	72.694998
3968.000000	72.764205
3966.000000	72.827947
3964.000000	72.877017
3962.000000	72.926660
3960.000000	72.990391
3958.000000	73.058997
3956.000000	73.122161
3954.000000	73.172175
3952.000000	73.196936
3950.000000	73.218832
3948.000000	73.277816
3946.000000	73.345318
3944.000000	73.386903
3942.000000	73.464772
3940.000000	73.586288
3938.000000	73.681267
3936.000000	73.706666
3934.000000	73.679248
3932.000000	73.701332
3930.000000	73.819123
3928.000000	73.921467
3926.000000	73.960684
3924.000000	74.011042
3922.000000	74.060021
3920.000000	74.048528
3918.000000	74.066560
3916.000000	74.221761
3914.000000	74.429778
3912.000000	74.563661
3910.000000	74.610703
3908.000000	74.510909
3906.000000	74.232232
3904.000000	73.995629
3902.000000	74.002561
3900.000000	74.241092
3898.000000	74.617242
3896.000000	74.885564
3894.000000	74.838200
3892.000000	74.722199
3890.000000	74.795848
3888.000000	74.774096
3886.000000	74.684079
3884.000000	74.834883
3882.000000	75.008451
3880.000000	75.154053
3878.000000	75.350016
3876.000000	75.386598
3874.000000	75.233462
3872.000000	74.946413
3870.000000	74.839705
3868.000000	75.077901
3866.000000	75.267484
3864.000000	75.395806
3862.000000	75.657635
3860.000000	75.871813
3858.000000	75.555750
3856.000000	74.453589
3854.000000	73.685926
3852.000000	74.359653
3850.000000	75.628359
3848.000000	76.320227
3846.000000	76.402854
3844.000000	76.268010
3842.000000	76.020989
3840.000000	75.567197
3838.000000	75.345726
3836.000000	75.733084
3834.000000	76.245994
3832.000000	76.552675
3830.000000	76.779458
3828.000000	76.917256
3826.000000	76.925564
3824.000000	76.665076
3822.000000	76.342507
3820.000000	76.344662
3818.000000	76.320271
3816.000000	76.388769
3814.000000	76.981910
3812.000000	77.499634
3810.000000	77.403915
3808.000000	77.062619
3806.000000	77.021022
3804.000000	76.914472
3802.000000	76.688443
3800.000000	77.005363
3798.000000	77.538164
3796.000000	77.854451
3794.000000	78.107051
3792.000000	78.282412
3790.000000	78.358000
3788.000000	78.379033
3786.000000	78.385092
3784.000000	78.411726
3782.000000	78.392281
3780.000000	78.366873
3778.000000	78.500982
3776.000000	78.696082
3774.000000	78.733881
3772.000000	78.569644
3770.000000	78.453375
3768.000000	78.543248
3766.000000	78.707718
3764.000000	78.856187
3762.000000	78.861722
3760.000000	78.778250
3758.000000	78.817861
3756.000000	78.707849
3754.000000	78.053144
3752.000000	77.335133
3750.000000	77.342618
3748.000000	77.617776
3746.000000	77.370951
3744.000000	77.544939
3742.000000	78.558498
3740.000000	79.089881
3738.000000	78.802388
3736.000000	78.520185
3734.000000	78.635838
3732.000000	79.046387
3730.000000	79.528554
3728.000000	79.734976
3726.000000	79.753839
3724.000000	79.826205
3722.000000	79.956588
3720.000000	80.128561
3718.000000	80.276630
3716.000000	80.198322
3714.000000	79.781214
3712.000000	79.500788
3710.000000	79.775553
3708.000000	80.290045
3706.000000	80.595987
3704.000000	80.589572
3702.000000	80.550248
3700.000000	80.709789
3698.000000	80.898811
3696.000000	80.949827
3694.000000	80.791493
3692.000000	80.320794
3690.000000	79.792040
3688.000000	79.922814
3686.000000	80.663851
3684.000000	81.168825
3682.000000	81.219860
3680.000000	80.950440
3678.000000	80.292542
3676.000000	79.808253
3674.000000	79.987404
3672.000000	80.122430
3670.000000	80.260253
3668.000000	80.879169
3666.000000	81.458391
3664.000000	81.673220
3662.000000	81.706844
3660.000000	81.591865
3658.000000	81.299597
3656.000000	81.185130
3654.000000	81.202345
3652.000000	80.769485
3650.000000	80.266080
3648.000000	80.494425
3646.000000	81.205258
3644.000000	81.707043
3642.000000	81.875769
3640.000000	81.917442
3638.000000	81.918919
3636.000000	81.867358
3634.000000	81.726141
3632.000000	81.264667
3630.000000	80.673323
3628.000000	80.814959
3626.000000	81.515363
3624.000000	81.860079
3622.000000	81.668889
3620.000000	81.384131
3618.000000	81.429123
3616.000000	81.591714
3614.000000	81.572055
3612.000000	81.463903
3610.000000	81.389162
3608.000000	81.516452
3606.000000	81.809041
3604.000000	81.973444
3602.000000	81.962041
3600.000000	81.922420
3598.000000	81.886079
3596.000000	81.837292
3594.000000	81.848705
3592.000000	81.830691
3590.000000	81.610775
3588.000000	81.432779
3586.000000	81.588573
3584.000000	81.857851
3582.000000	81.978664
3580.000000	81.989327
3578.000000	81.984421
3576.000000	81.983957
3574.000000	81.982263
3572.000000	81.914055
3570.000000	81.681295
3568.000000	81.447357
3566.000000	81.499876
3564.000000	81.718389
3562.000000	81.845996
3560.000000	81.888130
3558.000000	81.913108
3556.000000	81.900113
3554.000000	81.844383
3552.000000	81.813271
3550.000000	81.796533
3548.000000	81.721875
3546.000000	81.667002
3544.000000	81.715417
3542.000000	81.793550
3540.000000	81.813994
3538.000000	81.780743
3536.000000	81.753067
3534.000000	81.746366
3532.000000	81.708236
3530.000000	81.630938
3528.000000	81.561496
3526.000000	81.513550
3524.000000	81.479304
3522.000000	81.477190
3520.000000	81.483276
3518.000000	81.466576
3516.000000	81.434701
3514.000000	81.387382
3512.000000	81.319422
3510.000000	81.255771
3508.000000	81.217327
3506.000000	81.155865
3504.000000	81.063664
3502.000000	81.016121
3500.000000	81.003217
3498.000000	80.961868
3496.000000	80.905932
3494.000000	80.860914
3492.000000	80.811468
3490.000000	80.748519
3488.000000	80.689359
3486.000000	80.645217
3484.000000	80.596958
3482.000000	80.554699
3480.000000	80.544443
3478.000000	80.549657
3476.000000	80.549991
3474.000000	80.553093
3472.000000	80.560185
3470.000000	80.562143
3468.000000	80.569909
3466.000000	80.599287
3464.000000	80.637358
3462.000000	80.673318
3460.000000	80.713368
3458.000000	80.754882
3456.000000	80.791672
3454.000000	80.821502
3452.000000	80.841664
3450.000000	80.839218
3448.000000	80.826827
3446.000000	80.852787
3444.000000	80.909371
3442.000000	80.972963
3440.000000	81.050100
3438.000000	81.137426
3436.000000	81.236201
3434.000000	81.357050
3432.000000	81.496899
3430.000000	81.641301
3428.000000	81.785462
3426.000000	81.923238
3424.000000	82.042352
3422.000000	82.144475
3420.000000	82.254050
3418.000000	82.371104
3416.000000	82.471730
3414.000000	82.553866
3412.000000	82.628036
3410.000000	82.695425
3408.000000	82.756578
3406.000000	82.813063
3404.000000	82.860956
3402.000000	82.903712
3400.000000	82.958970
3398.000000	83.035041
3396.000000	83.116493
3394.000000	83.183057
3392.000000	83.247886
3390.000000	83.331938
3388.000000	83.413615
3386.000000	83.476086
3384.000000	83.534185
3382.000000	83.594318
3380.000000	83.650034
3378.000000	83.701068
3376.000000	83.750986
3374.000000	83.799368
3372.000000	83.836537
3370.000000	83.861011
3368.000000	83.896662
3366.000000	83.949957
3364.000000	84.005762
3362.000000	84.055287
3360.000000	84.100561
3358.000000	84.143749
3356.000000	84.185847
3354.000000	84.228626
3352.000000	84.267863
3350.000000	84.308329
3348.000000	84.356084
3346.000000	84.402217
3344.000000	84.443319
3342.000000	84.480892
3340.000000	84.512833
3338.000000	84.544310
3336.000000	84.586786
3334.000000	84.636238
3332.000000	84.681608
3330.000000	84.719473
3328.000000	84.751958
3326.000000	84.784489
3324.000000	84.823151
3322.000000	84.864393
3320.000000	84.903268
3318.000000	84.938652
3316.000000	84.971483
3314.000000	85.002933
3312.000000	85.032969
3310.000000	85.056617
3308.000000	85.075590
3306.000000	85.102229
3304.000000	85.147801
3302.000000	85.201482
3300.000000	85.245422
3298.000000	85.278388
3296.000000	85.307779
3294.000000	85.335750
3292.000000	85.367505
3290.000000	85.411371
3288.000000	85.458703
3286.000000	85.499328
3284.000000	85.536595
3282.000000	85.574347
3280.000000	85.611021
3278.000000	85.643294
3276.000000	85.674487
3274.000000	85.708889
3272.000000	85.746460
3270.000000	85.790626
3268.000000	85.842346
3266.000000	85.890066
3264.000000	85.933532
3262.000000	85.976735
3260.000000	86.019079
3258.000000	86.058823
3256.000000	86.098766
3254.000000	86.145824
3252.000000	86.200221
3250.000000	86.250654
3248.000000	86.291007
3246.000000	86.330145
3244.000000	86.383018
3242.000000	86.441136
3240.000000	86.494101
3238.000000	86.543404
3236.000000	86.586725
3234.000000	86.625892
3232.000000	86.675901
3230.000000	86.733738
3228.000000	86.788566
3226.000000	86.841968
3224.000000	86.893036
3222.000000	86.937485
3220.000000	86.982070
3218.000000	87.032924
3216.000000	87.082153
3214.000000	87.129046
3212.000000	87.179335
3210.000000	87.232366
3208.000000	87.292910
3206.000000	87.358982
3204.000000	87.427852
3202.000000	87.497475
3200.000000	87.564740
3198.000000	87.632649
3196.000000	87.709194
3194.000000	87.788685
3192.000000	87.863722
3190.000000	87.934386
3188.000000	88.003141
3186.000000	88.072932
3184.000000	88.146277
3182.000000	88.218754
3180.000000	88.286176
3178.000000	88.356512
3176.000000	88.435827
3174.000000	88.513157
3172.000000	88.585199
3170.000000	88.656229
3168.000000	88.730266
3166.000000	88.806276
3164.000000	88.883656
3162.000000	88.961719
3160.000000	89.040912
3158.000000	89.119848
3156.000000	89.196172
3154.000000	89.265189
3152.000000	89.337408
3150.000000	89.423833
3148.000000	89.511241
3146.000000	89.589727
3144.000000	89.664610
3142.000000	89.735963
3140.000000	89.805189
3138.000000	89.877716
3136.000000	89.949248
3134.000000	90.013855
3132.000000	90.083068
3130.000000	90.153095
3128.000000	90.215818
3126.000000	90.276946
3124.000000	90.335199
3122.000000	90.383795
3120.000000	90.429096
3118.000000	90.477431
3116.000000	90.534710
3114.000000	90.602372
3112.000000	90.666717
3110.000000	90.717154
3108.000000	90.769595
3106.000000	90.830433
3104.000000	90.888615
3102.000000	90.944343
3100.000000	91.009254
3098.000000	91.077566
3096.000000	91.143233
3094.000000	91.210748
3092.000000	91.276401
3090.000000	91.336020
3088.000000	91.393829
3086.000000	91.445432
3084.000000	91.491043
3082.000000	91.531272
3080.000000	91.566049
3078.000000	91.605225
3076.000000	91.652249
3074.000000	91.687469
3072.000000	91.706358
3070.000000	91.713863
3068.000000	91.716288
3066.000000	91.730928
3064.000000	91.768746
3062.000000	91.820716
3060.000000	91.876723
3058.000000	91.932075
3056.000000	91.992975
3054.000000	92.058273
3052.000000	92.116403
3050.000000	92.165569
3048.000000	92.215102
3046.000000	92.258276
3044.000000	92.288594
3042.000000	92.313707
3040.000000	92.341518
3038.000000	92.363335
3036.000000	92.371576
3034.000000	92.366580
3032.000000	92.352653
3030.000000	92.324534
3028.000000	92.262198
3026.000000	92.153910
3024.000000	92.024514
3022.000000	91.908010
3020.000000	91.842562
3018.000000	91.868074
3016.000000	92.005720
3014.000000	92.237902
3012.000000	92.524010
3010.000000	92.808268
3008.000000	93.042153
3006.000000	93.206469
3004.000000	93.320419
3002.000000	93.404220
3000.000000	93.464690
2998.000000	93.503652
2996.000000	93.532444
2994.000000	93.552501
2992.000000	93.564328
2990.000000	93.566014
2988.000000	93.552042
2986.000000	93.518113
2984.000000	93.459875
2982.000000	93.370918
2980.000000	93.248961
2978.000000	93.083276
2976.000000	92.855308
2974.000000	92.548112
2972.000000	92.152305
2970.000000	91.669078
2968.000000	91.141853
2966.000000	90.652679
2964.000000	90.293812
2962.000000	90.121438
2960.000000	90.136605
2958.000000	90.281577
2956.000000	90.476043
2954.000000	90.660243
2952.000000	90.804263
2950.000000	90.874781
2948.000000	90.838064
2946.000000	90.672804
2944.000000	90.378225
2942.000000	89.965669
2940.000000	89.470634
2938.000000	88.954590
2936.000000	88.481469
2934.000000	88.060123
2932.000000	87.659494
2930.000000	87.265809
2928.000000	86.936336
2926.000000	86.772890
2924.000000	86.881510
2922.000000	87.305248
2920.000000	87.986033
2918.000000	88.806253
2916.000000	89.660468
2914.000000	90.464014
2912.000000	91.159469
2910.000000	91.716633
2908.000000	92.150079
2906.000000	92.499997
2904.000000	92.803371
2902.000000	93.078503
2900.000000	93.335723
2898.000000	93.576812
2896.000000	93.803628
2894.000000	94.018806
2892.000000	94.223547
2890.000000	94.410484
2888.000000	94.573830
2886.000000	94.703304
2884.000000	94.792821
2882.000000	94.837140
2880.000000	94.835042
2878.000000	94.780211
2876.000000	94.666210
2874.000000	94.484420
2872.000000	94.228916
2870.000000	93.869774
2868.000000	93.381656
2866.000000	92.803605
2864.000000	92.259114
2862.000000	91.901694
2860.000000	91.824954
2858.000000	91.994236
2856.000000	92.300333
2854.000000	92.661291
2852.000000	93.077287
2850.000000	93.585858
2848.000000	94.191493
2846.000000	94.814116
2844.000000	95.358972
2842.000000	95.791940
2840.000000	96.131405
2838.000000	96.402745
2836.000000	96.626631
2834.000000	96.810058
2832.000000	96.965197
2830.000000	97.101371
2828.000000	97.225159
2826.000000	97.336745
2824.000000	97.438989
2822.000000	97.531928
2820.000000	97.617820
2818.000000	97.695767
2816.000000	97.767969
2814.000000	97.832423
2812.000000	97.890919
2810.000000	97.943468
2808.000000	97.993592
2806.000000	98.040416
2804.000000	98.086372
2802.000000	98.130166
2800.000000	98.173008
2798.000000	98.212678
2796.000000	98.253742
2794.000000	98.295647
2792.000000	98.341352
2790.000000	98.396064
2788.000000	98.467036
2786.000000	98.549522
2784.000000	98.636189
2782.000000	98.717147
2780.000000	98.792188
2778.000000	98.858715
2776.000000	98.919517
2774.000000	98.976537
2772.000000	99.032846
2770.000000	99.085244
2768.000000	99.135715
2766.000000	99.183787
2764.000000	99.232180
2762.000000	99.278662
2760.000000	99.323574
2758.000000	99.366938
2756.000000	99.411202
2754.000000	99.452627
2752.000000	99.491718
2750.000000	99.527870
2748.000000	99.564401
2746.000000	99.600563
2744.000000	99.638041
2742.000000	99.672994
2740.000000	99.707314
2738.000000	99.740776
2736.000000	99.775656
2734.000000	99.809147
2732.000000	99.842369
2730.000000	99.873462
2728.000000	99.905554
2726.000000	99.937208
2724.000000	99.970926
2722.000000	100.002799
2720.000000	100.034907
2718.000000	100.064748
2716.000000	100.093695
2714.000000	100.120465
2712.000000	100.146388
2710.000000	100.169029
2708.000000	100.190826
2706.000000	100.214052
2704.000000	100.245066
2702.000000	100.282124
2700.000000	100.325601
2698.000000	100.371146
2696.000000	100.418836
2694.000000	100.463310
2692.000000	100.506682
2690.000000	100.547793
2688.000000	100.588340
2686.000000	100.627204
2684.000000	100.667279
2682.000000	100.704152
2680.000000	100.739869
2678.000000	100.773413
2676.000000	100.805768
2674.000000	100.835343
2672.000000	100.867355
2670.000000	100.897491
2668.000000	100.926217
2666.000000	100.953213
2664.000000	100.981385
2662.000000	101.009242
2660.000000	101.039278
2658.000000	101.070013
2656.000000	101.103179
2654.000000	101.138073
2652.000000	101.177915
2650.000000	101.216796
2648.000000	101.255828
2646.000000	101.294612
2644.000000	101.334230
2642.000000	101.370282
2640.000000	101.405200
2638.000000	101.437989
2636.000000	101.471078
2634.000000	101.503090
2632.000000	101.536029
2630.000000	101.565285
2628.000000	101.592541
2626.000000	101.618851
2624.000000	101.646957
2622.000000	101.673653
2620.000000	101.700978
2618.000000	101.726075
2616.000000	101.752158
2614.000000	101.776974
2612.000000	101.802333
2610.000000	101.823871
2608.000000	101.842676
2606.000000	101.857655
2604.000000	101.873740
2602.000000	101.886775
2600.000000	101.897238
2598.000000	101.905762
2596.000000	101.917362
2594.000000	101.930652
2592.000000	101.952309
2590.000000	101.983535
2588.000000	102.025409
2586.000000	102.075004
2584.000000	102.134253
2582.000000	102.195549
2580.000000	102.257649
2578.000000	102.316063
2576.000000	102.370127
2574.000000	102.416586
2572.000000	102.459316
2570.000000	102.497382
2568.000000	102.534594
2566.000000	102.567643
2564.000000	102.599929
2562.000000	102.630878
2560.000000	102.660804
2558.000000	102.687980
2556.000000	102.715928
2554.000000	102.741877
2552.000000	102.767854
2550.000000	102.791367
2548.000000	102.817016
2546.000000	102.841969
2544.000000	102.867831
2542.000000	102.893585
2540.000000	102.920736
2538.000000	102.946410
2536.000000	102.974005
2534.000000	102.998595
2532.000000	103.023676
2530.000000	103.048161
2528.000000	103.074094
2526.000000	103.097045
2524.000000	103.121562
2522.000000	103.145310
2520.000000	103.169460
2518.000000	103.191621
2516.000000	103.214256
2514.000000	103.236093
2512.000000	103.259308
2510.000000	103.279928
2508.000000	103.301794
2506.000000	103.320782
2504.000000	103.341215
2502.000000	103.362717
2500.000000	103.386840
2498.000000	103.409104
2496.000000	103.434198
2494.000000	103.459518
2492.000000	103.486876
2490.000000	103.512786
2488.000000	103.539494
2486.000000	103.563588
2484.000000	103.589533
2482.000000	103.614359
2480.000000	103.639437
2478.000000	103.661672
2476.000000	103.685236
2474.000000	103.705395
2472.000000	103.725243
2470.000000	103.742922
2468.000000	103.760500
2466.000000	103.776230
2464.000000	103.793376
2462.000000	103.808931
2460.000000	103.824722
2458.000000	103.838551
2456.000000	103.854924
2454.000000	103.870939
2452.000000	103.889655
2450.000000	103.905677
2448.000000	103.922116
2446.000000	103.936367
2444.000000	103.951730
2442.000000	103.965689
2440.000000	103.981007
2438.000000	103.994626
2436.000000	104.010113
2434.000000	104.022774
2432.000000	104.035594
2430.000000	104.045673
2428.000000	104.056221
2426.000000	104.067009
2424.000000	104.082948
2422.000000	104.098956
2420.000000	104.115181
2418.000000	104.126562
2416.000000	104.137373
2414.000000	104.147357
2412.000000	104.160255
2410.000000	104.171278
2408.000000	104.183453
2406.000000	104.194736
2404.000000	104.209298
2402.000000	104.223275
2400.000000	104.240109
2398.000000	104.255628
2396.000000	104.272759
2394.000000	104.288264
2392.000000	104.306259
2390.000000	104.321809
2388.000000	104.334602
2386.000000	104.333370
2384.000000	104.316348
2382.000000	104.270334
2380.000000	104.183651
2378.000000	104.042005
2376.000000	103.844867
2374.000000	103.592492
2372.000000	103.299081
2370.000000	102.986229
2368.000000	102.690570
2366.000000	102.442939
2364.000000	102.279385
2362.000000	102.222322
2360.000000	102.288558
2358.000000	102.475786
2356.000000	102.779510
2354.000000	103.173708
2352.000000	103.613378
2350.000000	103.932597
2348.000000	103.914754
2346.000000	103.625339
2344.000000	103.317703
2342.000000	103.094324
2340.000000	102.966732
2338.000000	102.910191
2336.000000	102.907671
2334.000000	102.944855
2332.000000	103.019763
2330.000000	103.124250
2328.000000	103.255727
2326.000000	103.399952
2324.000000	103.551228
2322.000000	103.699358
2320.000000	103.841487
2318.000000	103.970077
2316.000000	104.088558
2314.000000	104.190871
2312.000000	104.280807
2310.000000	104.354018
2308.000000	104.416955
2306.000000	104.465571
2304.000000	104.507722
2302.000000	104.541437
2300.000000	104.570268
2298.000000	104.592292
2296.000000	104.613023
2294.000000	104.629925
2292.000000	104.647856
2290.000000	104.661439
2288.000000	104.673361
2286.000000	104.681744
2284.000000	104.690341
2282.000000	104.690547
2280.000000	104.689128
2278.000000	104.683520
2276.000000	104.678706
2274.000000	104.671882
2272.000000	104.666560
2270.000000	104.658748
2268.000000	104.652610
2266.000000	104.646188
2264.000000	104.643824
2262.000000	104.640356
2260.000000	104.640678
2258.000000	104.638306
2256.000000	104.637410
2254.000000	104.637229
2252.000000	104.643195
2250.000000	104.647785
2248.000000	104.656155
2246.000000	104.664407
2244.000000	104.675348
2242.000000	104.685665
2240.000000	104.700078
2238.000000	104.712064
2236.000000	104.725874
2234.000000	104.738699
2232.000000	104.753571
2230.000000	104.764375
2228.000000	104.777031
2226.000000	104.786604
2224.000000	104.797172
2222.000000	104.803644
2220.000000	104.812388
2218.000000	104.819185
2216.000000	104.827838
2214.000000	104.831914
2212.000000	104.837112
2210.000000	104.841034
2208.000000	104.846757
2206.000000	104.849001
2204.000000	104.854231
2202.000000	104.856765
2200.000000	104.862205
2198.000000	104.865052
2196.000000	104.868593
2194.000000	104.868365
2192.000000	104.871093
2190.000000	104.870093
2188.000000	104.871146
2186.000000	104.869025
2184.000000	104.868838
2182.000000	104.866072
2180.000000	104.865719
2178.000000	104.863841
2176.000000	104.862214
2174.000000	104.850568
2172.000000	104.827523
2170.000000	104.801289
2168.000000	104.812670
2166.000000	104.834942
2164.000000	104.844375
2162.000000	104.842779
2160.000000	104.842170
2158.000000	104.839396
2156.000000	104.840868
2154.000000	104.837644
2152.000000	104.835063
2150.000000	104.830013
2148.000000	104.830285
2146.000000	104.829014
2144.000000	104.831380
2142.000000	104.828181
2140.000000	104.824681
2138.000000	104.818595
2136.000000	104.817416
2134.000000	104.816260
2132.000000	104.816279
2130.000000	104.812092
2128.000000	104.812088
2126.000000	104.810777
2124.000000	104.811033
2122.000000	104.810599
2120.000000	104.815044
2118.000000	104.816183
2116.000000	104.818488
2114.000000	104.823382
2112.000000	104.834917
2110.000000	104.845079
2108.000000	104.858265
2106.000000	104.869242
2104.000000	104.882646
2102.000000	104.892475
2100.000000	104.905812
2098.000000	104.915663
2096.000000	104.928040
2094.000000	104.938675
2092.000000	104.950413
2090.000000	104.957332
2088.000000	104.977067
2086.000000	104.993557
2084.000000	105.011825
2082.000000	105.024673
2080.000000	105.042311
2078.000000	105.056147
2076.000000	105.073616
2074.000000	105.087659
2072.000000	105.108277
2070.000000	105.124441
2068.000000	105.137880
2066.000000	105.140291
2064.000000	105.163637
2062.000000	105.197150
2060.000000	105.225918
2058.000000	105.246352
2056.000000	105.268332
2054.000000	105.286363
2052.000000	105.306866
2050.000000	105.324689
2048.000000	105.347208
2046.000000	105.362813
2044.000000	105.376242
2042.000000	105.381931
2040.000000	105.405256
2038.000000	105.427935
2036.000000	105.442874
2034.000000	105.448836
2032.000000	105.449804
2030.000000	105.431604
2028.000000	105.441651
2026.000000	105.476294
2024.000000	105.500692
2022.000000	105.507023
2020.000000	105.498575
2018.000000	105.478540
2016.000000	105.506650
2014.000000	105.557070
2012.000000	105.587161
2010.000000	105.600190
2008.000000	105.615547
2006.000000	105.627414
2004.000000	105.639488
2002.000000	105.643600
2000.000000	105.648089
1998.000000	105.650426
1996.000000	105.648743
1994.000000	105.590470
1992.000000	105.540853
1990.000000	105.579852
1988.000000	105.623162
1986.000000	105.638816
1984.000000	105.642197
1982.000000	105.630750
1980.000000	105.619443
1978.000000	105.603603
1976.000000	105.589519
1974.000000	105.572573
1972.000000	105.555481
1970.000000	105.506793
1968.000000	105.432318
1966.000000	105.416315
1964.000000	105.438590
1962.000000	105.387684
1960.000000	105.267627
1958.000000	105.234991
1956.000000	105.313222
1954.000000	105.340884
1952.000000	105.326192
1950.000000	105.290097
1948.000000	105.258733
1946.000000	105.196400
1944.000000	105.074268
1942.000000	105.027770
1940.000000	105.131587
1938.000000	105.167981
1936.000000	105.148540
1934.000000	105.114977
1932.000000	105.091650
1930.000000	105.063420
1928.000000	105.036230
1926.000000	104.965035
1924.000000	104.844375
1922.000000	104.779153
1920.000000	104.655447
1918.000000	104.495324
1916.000000	104.637729
1914.000000	104.741216
1912.000000	104.678007
1910.000000	104.570672
1908.000000	104.537154
1906.000000	104.521392
1904.000000	104.486546
1902.000000	104.430934
1900.000000	104.387755
1898.000000	104.315470
1896.000000	104.232418
1894.000000	104.196842
1892.000000	104.133909
1890.000000	103.989958
1888.000000	104.045530
1886.000000	104.133377
1884.000000	104.140874
1882.000000	104.125343
1880.000000	104.111426
1878.000000	104.081959
1876.000000	104.062002
1874.000000	104.017218
1872.000000	103.830691
1870.000000	103.447589
1868.000000	103.412306
1866.000000	103.693501
1864.000000	103.843068
1862.000000	103.831154
1860.000000	103.797032
1858.000000	103.762755
1856.000000	103.746462
1854.000000	103.708216
1852.000000	103.669116
1850.000000	103.577149
1848.000000	103.388653
1846.000000	102.850033
1844.000000	102.525337
1842.000000	103.003158
1840.000000	103.329813
1838.000000	103.277620
1836.000000	103.228098
1834.000000	103.150457
1832.000000	102.824385
1830.000000	102.495968
1828.000000	102.583915
1826.000000	102.552910
1824.000000	102.588099
1822.000000	102.754773
1820.000000	102.749747
1818.000000	102.653146
1816.000000	102.594738
1814.000000	102.492897
1812.000000	102.291265
1810.000000	102.174345
1808.000000	102.192300
1806.000000	102.140277
1804.000000	101.938780
1802.000000	101.611343
1800.000000	101.463385
1798.000000	101.505585
1796.000000	101.368244
1794.000000	100.722237
1792.000000	100.377797
1790.000000	100.816266
1788.000000	101.065764
1786.000000	100.830594
1784.000000	100.682380
1782.000000	100.597826
1780.000000	100.498003
1778.000000	100.463080
1776.000000	100.129739
1774.000000	99.197425
1772.000000	98.743803
1770.000000	99.210180
1768.000000	99.485659
1766.000000	99.762451
1764.000000	99.596085
1762.000000	99.173180
1760.000000	99.245967
1758.000000	99.181942
1756.000000	99.053164
1754.000000	98.831052
1752.000000	98.026710
1750.000000	97.783059
1748.000000	98.075862
1746.000000	98.198929
1744.000000	98.061819
1742.000000	97.678996
1740.000000	97.301598
1738.000000	97.289258
1736.000000	96.272689
1734.000000	95.230630
1732.000000	96.256420
1730.000000	97.233047
1728.000000	97.490783
1726.000000	97.500849
1724.000000	97.392341
1722.000000	97.194485
1720.000000	96.204129
1718.000000	94.831926
1716.000000	95.116397
1714.000000	96.164240
1712.000000	96.700214
1710.000000	96.663187
1708.000000	96.292486
1706.000000	95.828291
1704.000000	95.586535
1702.000000	94.297216
1700.000000	93.341005
1698.000000	93.718336
1696.000000	93.635422
1694.000000	94.860442
1692.000000	95.937240
1690.000000	95.871849
1688.000000	95.337157
1686.000000	93.585520
1684.000000	92.926175
1682.000000	94.517923
1680.000000	95.444295
1678.000000	95.258003
1676.000000	94.510498
1674.000000	94.521531
1672.000000	94.606636
1670.000000	94.149356
1668.000000	94.458348
1666.000000	94.904363
1664.000000	94.540588
1662.000000	94.367027
1660.000000	94.682859
1658.000000	94.589948
1656.000000	93.135904
1654.000000	90.421224
1652.000000	90.647021
1650.000000	92.819639
1648.000000	92.693398
1646.000000	92.321169
1644.000000	93.166270
1642.000000	93.668714
1640.000000	93.415723
1638.000000	92.423496
1636.000000	91.262097
1634.000000	91.816986
1632.000000	92.718430
1630.000000	92.565850
1628.000000	92.121419
1626.000000	91.688092
1624.000000	91.028010
1622.000000	90.750526
1620.000000	90.398558
1618.000000	89.043347
1616.000000	88.491481
1614.000000	89.056053
1612.000000	88.805028
1610.000000	88.162004
1608.000000	87.838146
1606.000000	87.893231
1604.000000	88.092707
1602.000000	88.342365
1600.000000	88.593769
1598.000000	88.801766
1596.000000	88.932827
1594.000000	89.047392
1592.000000	89.127460
1590.000000	89.139809
1588.000000	89.108108
1586.000000	89.042463
1584.000000	88.965486
1582.000000	88.910724
1580.000000	88.708168
1578.000000	87.635313
1576.000000	86.882375
1574.000000	87.879095
1572.000000	88.204843
1570.000000	87.656287
1568.000000	87.769781
1566.000000	87.911848
1564.000000	87.580831
1562.000000	86.151848
1560.000000	83.770238
1558.000000	83.819029
1556.000000	85.538130
1554.000000	86.469360
1552.000000	87.167168
1550.000000	87.541879
1548.000000	87.726854
1546.000000	87.480176
1544.000000	86.894456
1542.000000	85.892502
1540.000000	85.330396
1538.000000	86.854081
1536.000000	88.358725
1534.000000	88.354486
1532.000000	88.731680
1530.000000	89.120399
1528.000000	88.868798
1526.000000	88.487098
1524.000000	88.017632
1522.000000	87.142427
1520.000000	87.329548
1518.000000	87.851043
1516.000000	87.912719
1514.000000	87.979383
1512.000000	87.767506
1510.000000	87.085716
1508.000000	85.342076
1506.000000	84.543387
1504.000000	85.440553
1502.000000	85.005511
1500.000000	82.449600
1498.000000	78.942725
1496.000000	76.420512
1494.000000	76.268610
1492.000000	77.351495
1490.000000	78.968205
1488.000000	80.978774
1486.000000	82.726544
1484.000000	83.877473
1482.000000	84.390060
1480.000000	84.623569
1478.000000	84.467871
1476.000000	83.941556
1474.000000	83.167664
1472.000000	82.995789
1470.000000	83.581385
1468.000000	83.562409
1466.000000	82.823594
1464.000000	82.427789
1462.000000	82.284333
1460.000000	81.123059
1458.000000	78.975765
1456.000000	78.002380
1454.000000	78.199791
1452.000000	77.927433
1450.000000	77.974401
1448.000000	78.748137
1446.000000	79.796806
1444.000000	80.351436
1442.000000	80.478607
1440.000000	80.295286
1438.000000	79.620411
1436.000000	79.525122
1434.000000	80.267278
1432.000000	80.432393
1430.000000	80.336606
1428.000000	80.409951
1426.000000	80.434876
1424.000000	80.283820
1422.000000	79.946616
1420.000000	79.165708
1418.000000	79.171437
1416.000000	79.625401
1414.000000	79.614196
1412.000000	79.264544
1410.000000	78.743683
1408.000000	77.977713
1406.000000	77.103726
1404.000000	76.633456
1402.000000	76.670044
1400.000000	76.798608
1398.000000	77.187554
1396.000000	77.523760
1394.000000	77.864980
1392.000000	78.339927
1390.000000	78.345551
1388.000000	77.913411
1386.000000	77.690119
1384.000000	77.710604
1382.000000	77.835105
1380.000000	77.921968
1378.000000	77.849526
1376.000000	77.636055
1374.000000	77.464708
1372.000000	77.491771
1370.000000	77.432489
1368.000000	77.278130
1366.000000	77.110444
1364.000000	76.802907
1362.000000	76.589221
1360.000000	76.570181
1358.000000	76.493989
1356.000000	76.302162
1354.000000	76.096440
1352.000000	75.893766
1350.000000	75.676161
1348.000000	75.459552
1346.000000	75.237100
1344.000000	74.984295
1342.000000	74.670830
1340.000000	74.363972
1338.000000	74.236967
1336.000000	74.210201
1334.000000	74.145261
1332.000000	74.000198
1330.000000	73.807795
1328.000000	73.584519
1326.000000	73.342276
1324.000000	73.076220
1322.000000	72.784197
1320.000000	72.460309
1318.000000	72.157303
1316.000000	71.872048
1314.000000	71.565319
1312.000000	71.256036
1310.000000	70.952341
1308.000000	70.626966
1306.000000	70.297752
1304.000000	69.957833
1302.000000	69.614502
1300.000000	69.268902
1298.000000	68.921690
1296.000000	68.564090
1294.000000	68.199866
1292.000000	67.814431
1290.000000	67.414319
1288.000000	67.009599
1286.000000	66.611879
1284.000000	66.200974
1282.000000	65.770732
1280.000000	65.312390
1278.000000	64.824114
1276.000000	64.283042
1274.000000	63.666313
1272.000000	62.933760
1270.000000	62.046504
1268.000000	60.941077
1266.000000	59.620816
1264.000000	58.247408
1262.000000	57.144160
1260.000000	56.591431
1258.000000	56.600272
1256.000000	56.891613
1254.000000	57.137507
1252.000000	57.137035
1250.000000	56.895159
1248.000000	56.498120
1246.000000	56.023765
1244.000000	55.512438
1242.000000	54.999108
1240.000000	54.489821
1238.000000	53.996350
1236.000000	53.517422
1234.000000	53.052330
1232.000000	52.597130
1230.000000	52.151442
1228.000000	51.704253
1226.000000	51.253231
1224.000000	50.792660
1222.000000	50.320878
1220.000000	49.825618
1218.000000	49.313758
1216.000000	48.792264
1214.000000	48.277169
1212.000000	47.782965
1210.000000	47.329008
1208.000000	46.910780
1206.000000	46.512997
1204.000000	46.114566
1202.000000	45.714067
1200.000000	45.316213
1198.000000	44.928619
1196.000000	44.536494
1194.000000	44.131000
1192.000000	43.710764
1190.000000	43.280532
1188.000000	42.836202
1186.000000	42.364905
1184.000000	41.781213
1182.000000	41.052469
1180.000000	40.485158
1178.000000	40.238288
1176.000000	40.005453
1174.000000	39.645812
1172.000000	39.217930
1170.000000	38.770499
1168.000000	38.304540
1166.000000	37.828756
1164.000000	37.356603
1162.000000	36.895044
1160.000000	36.438845
1158.000000	36.002440
1156.000000	35.579885
1154.000000	35.161248
1152.000000	34.734777
1150.000000	34.313540
1148.000000	33.883813
1146.000000	33.444517
1144.000000	33.014240
1142.000000	32.635156
1140.000000	32.323151
1138.000000	32.010962
1136.000000	31.651103
1134.000000	31.258514
1132.000000	30.842299
1130.000000	30.414395
1128.000000	29.990505
1126.000000	29.572345
1124.000000	29.143123
1122.000000	28.703603
1120.000000	28.253003
1118.000000	27.795534
1116.000000	27.329720
1114.000000	26.861737
1112.000000	26.394013
1110.000000	25.930819
1108.000000	25.473824
1106.000000	25.039184
1104.000000	24.622466
1102.000000	24.209867
1100.000000	23.796148
1098.000000	23.389383
1096.000000	22.990697
1094.000000	22.606566
1092.000000	22.239200
1090.000000	21.887700
1088.000000	21.543832
1086.000000	21.205732
1084.000000	20.858885
1082.000000	20.501803
1080.000000	20.164711
1078.000000	19.861608
1076.000000	19.584411
1074.000000	19.351104
1072.000000	19.135175
1070.000000	18.909690
1068.000000	18.677839
1066.000000	18.447461
1064.000000	18.214246
1062.000000	17.979212
1060.000000	17.731916
1058.000000	17.446832
1056.000000	17.059147
1054.000000	16.546304
1052.000000	16.038240
1050.000000	15.738342
1048.000000	15.704656
1046.000000	15.787459
1044.000000	15.789358
1042.000000	15.672564
1040.000000	15.486392
1038.000000	15.272705
1036.000000	15.045666
1034.000000	14.808028
1032.000000	14.558374
1030.000000	14.301771
1028.000000	14.035715
1026.000000	13.765533
1024.000000	13.493365
1022.000000	13.225689
1020.000000	12.970327
1018.000000	12.735503
1016.000000	12.520641
1014.000000	12.331777
1012.000000	12.162548
1010.000000	12.000691
1008.000000	11.833995
1006.000000	11.657076
1004.000000	11.462933
1002.000000	11.249875
1000.000000	11.020528
