PE IR       SUBTECH     SPECTRUM    ASCII       PEDS        4.00        
   -1
TE110A_023_100K_BG.ASC
20/05/14
12:22:49.00
20/05/14
12:22:49.00
Administrator
TE110A.Thursday, May 14 2020, 006.
1000.000000
#HDR
-1
-1
#GR
cm-1
EGY
1.0
0.0
6000.000000
-2.000000
2501
8
105.572208
11.033185
#DATA
6000.000000	16.740038
5998.000000	16.772485
5996.000000	16.805575
5994.000000	16.839156
5992.000000	16.872684
5990.000000	16.905900
5988.000000	16.937947
5986.000000	16.970323
5984.000000	17.004204
5982.000000	17.038267
5980.000000	17.072340
5978.000000	17.105575
5976.000000	17.138289
5974.000000	17.171922
5972.000000	17.205658
5970.000000	17.240208
5968.000000	17.274472
5966.000000	17.308804
5964.000000	17.343819
5962.000000	17.379202
5960.000000	17.414155
5958.000000	17.448357
5956.000000	17.481952
5954.000000	17.516403
5952.000000	17.550774
5950.000000	17.585007
5948.000000	17.618906
5946.000000	17.652098
5944.000000	17.685160
5942.000000	17.719573
5940.000000	17.754148
5938.000000	17.788803
5936.000000	17.822555
5934.000000	17.856049
5932.000000	17.889561
5930.000000	17.922953
5928.000000	17.957012
5926.000000	17.992896
5924.000000	18.028996
5922.000000	18.064603
5920.000000	18.099448
5918.000000	18.133785
5916.000000	18.169099
5914.000000	18.206350
5912.000000	18.244609
5910.000000	18.282958
5908.000000	18.319351
5906.000000	18.354191
5904.000000	18.389450
5902.000000	18.426342
5900.000000	18.464907
5898.000000	18.503253
5896.000000	18.540126
5894.000000	18.576381
5892.000000	18.612977
5890.000000	18.649041
5888.000000	18.685155
5886.000000	18.721343
5884.000000	18.756771
5882.000000	18.792426
5880.000000	18.828180
5878.000000	18.865283
5876.000000	18.902530
5874.000000	18.938793
5872.000000	18.975275
5870.000000	19.011946
5868.000000	19.048165
5866.000000	19.084910
5864.000000	19.122021
5862.000000	19.160013
5860.000000	19.198453
5858.000000	19.236970
5856.000000	19.275654
5854.000000	19.313906
5852.000000	19.351452
5850.000000	19.389757
5848.000000	19.428955
5846.000000	19.469464
5844.000000	19.509848
5842.000000	19.550249
5840.000000	19.590992
5838.000000	19.632343
5836.000000	19.674062
5834.000000	19.715634
5832.000000	19.757432
5830.000000	19.799988
5828.000000	19.842217
5826.000000	19.883790
5824.000000	19.925026
5822.000000	19.965914
5820.000000	20.006234
5818.000000	20.047245
5816.000000	20.088416
5814.000000	20.129588
5812.000000	20.169525
5810.000000	20.209605
5808.000000	20.251356
5806.000000	20.293067
5804.000000	20.333586
5802.000000	20.373467
5800.000000	20.414007
5798.000000	20.455031
5796.000000	20.495392
5794.000000	20.535987
5792.000000	20.576915
5790.000000	20.618064
5788.000000	20.659483
5786.000000	20.702047
5784.000000	20.744268
5782.000000	20.786409
5780.000000	20.828408
5778.000000	20.871546
5776.000000	20.914713
5774.000000	20.956400
5772.000000	20.996483
5770.000000	21.037882
5768.000000	21.080549
5766.000000	21.123903
5764.000000	21.166224
5762.000000	21.207157
5760.000000	21.248393
5758.000000	21.289874
5756.000000	21.330791
5754.000000	21.372580
5752.000000	21.414361
5750.000000	21.456703
5748.000000	21.498799
5746.000000	21.540821
5744.000000	21.583480
5742.000000	21.625950
5740.000000	21.667148
5738.000000	21.707644
5736.000000	21.746997
5734.000000	21.786739
5732.000000	21.826601
5730.000000	21.867207
5728.000000	21.908593
5726.000000	21.949879
5724.000000	21.991412
5722.000000	22.033602
5720.000000	22.076839
5718.000000	22.120541
5716.000000	22.163166
5714.000000	22.205619
5712.000000	22.248622
5710.000000	22.292670
5708.000000	22.336759
5706.000000	22.380260
5704.000000	22.423374
5702.000000	22.467592
5700.000000	22.512633
5698.000000	22.558655
5696.000000	22.604983
5694.000000	22.650696
5692.000000	22.695379
5690.000000	22.739877
5688.000000	22.784601
5686.000000	22.830038
5684.000000	22.875048
5682.000000	22.920580
5680.000000	22.967333
5678.000000	23.013280
5676.000000	23.058237
5674.000000	23.103357
5672.000000	23.149459
5670.000000	23.195511
5668.000000	23.240799
5666.000000	23.286542
5664.000000	23.332796
5662.000000	23.379565
5660.000000	23.425876
5658.000000	23.471528
5656.000000	23.515370
5654.000000	23.559646
5652.000000	23.605693
5650.000000	23.652963
5648.000000	23.698830
5646.000000	23.743660
5644.000000	23.788801
5642.000000	23.835024
5640.000000	23.881046
5638.000000	23.927120
5636.000000	23.972873
5634.000000	24.017917
5632.000000	24.061925
5630.000000	24.106960
5628.000000	24.153561
5626.000000	24.200386
5624.000000	24.246161
5622.000000	24.290969
5620.000000	24.335873
5618.000000	24.381124
5616.000000	24.425979
5614.000000	24.471553
5612.000000	24.517513
5610.000000	24.564095
5608.000000	24.609939
5606.000000	24.655770
5604.000000	24.701895
5602.000000	24.748051
5600.000000	24.793924
5598.000000	24.840119
5596.000000	24.886551
5594.000000	24.933372
5592.000000	24.980318
5590.000000	25.027612
5588.000000	25.073845
5586.000000	25.120127
5584.000000	25.166788
5582.000000	25.214929
5580.000000	25.262843
5578.000000	25.309902
5576.000000	25.356916
5574.000000	25.404682
5572.000000	25.453174
5570.000000	25.500752
5568.000000	25.546944
5566.000000	25.593669
5564.000000	25.641504
5562.000000	25.690831
5560.000000	25.739644
5558.000000	25.787055
5556.000000	25.833778
5554.000000	25.881589
5552.000000	25.929791
5550.000000	25.977244
5548.000000	26.023564
5546.000000	26.071698
5544.000000	26.121183
5542.000000	26.170157
5540.000000	26.215519
5538.000000	26.259932
5536.000000	26.306161
5534.000000	26.355947
5532.000000	26.406937
5530.000000	26.456696
5528.000000	26.503924
5526.000000	26.548448
5524.000000	26.592288
5522.000000	26.638132
5520.000000	26.685983
5518.000000	26.735791
5516.000000	26.785918
5514.000000	26.834925
5512.000000	26.880636
5510.000000	26.923718
5508.000000	26.968160
5506.000000	27.016601
5504.000000	27.067831
5502.000000	27.118078
5500.000000	27.166755
5498.000000	27.212925
5496.000000	27.252834
5494.000000	27.291640
5492.000000	27.334892
5490.000000	27.387587
5488.000000	27.445875
5486.000000	27.504664
5484.000000	27.561272
5482.000000	27.612812
5480.000000	27.654140
5478.000000	27.687687
5476.000000	27.727063
5474.000000	27.780100
5472.000000	27.839524
5470.000000	27.892639
5468.000000	27.940636
5466.000000	27.987859
5464.000000	28.032129
5462.000000	28.078021
5460.000000	28.130005
5458.000000	28.187123
5456.000000	28.244499
5454.000000	28.295812
5452.000000	28.339031
5450.000000	28.374754
5448.000000	28.410467
5446.000000	28.453621
5444.000000	28.500744
5442.000000	28.555936
5440.000000	28.613209
5438.000000	28.662913
5436.000000	28.707479
5434.000000	28.751602
5432.000000	28.795909
5430.000000	28.841946
5428.000000	28.898660
5426.000000	28.969330
5424.000000	29.036876
5422.000000	29.092980
5420.000000	29.139637
5418.000000	29.170704
5416.000000	29.191476
5414.000000	29.218163
5412.000000	29.266697
5410.000000	29.336129
5408.000000	29.407831
5406.000000	29.471933
5404.000000	29.526590
5402.000000	29.577769
5400.000000	29.623673
5398.000000	29.658245
5396.000000	29.689138
5394.000000	29.735674
5392.000000	29.799971
5390.000000	29.862461
5388.000000	29.908614
5386.000000	29.954586
5384.000000	30.012069
5382.000000	30.070262
5380.000000	30.110667
5378.000000	30.145239
5376.000000	30.193953
5374.000000	30.261145
5372.000000	30.330071
5370.000000	30.389875
5368.000000	30.439927
5366.000000	30.486048
5364.000000	30.534758
5362.000000	30.590281
5360.000000	30.645670
5358.000000	30.686863
5356.000000	30.714025
5354.000000	30.748988
5352.000000	30.801965
5350.000000	30.860227
5348.000000	30.898785
5346.000000	30.933122
5344.000000	30.981526
5342.000000	31.034993
5340.000000	31.083032
5338.000000	31.136212
5336.000000	31.205025
5334.000000	31.274741
5332.000000	31.329376
5330.000000	31.373327
5328.000000	31.420514
5326.000000	31.478814
5324.000000	31.544385
5322.000000	31.604780
5320.000000	31.657234
5318.000000	31.707244
5316.000000	31.757451
5314.000000	31.808808
5312.000000	31.856224
5310.000000	31.897475
5308.000000	31.941522
5306.000000	31.995657
5304.000000	32.055384
5302.000000	32.110925
5300.000000	32.163476
5298.000000	32.217155
5296.000000	32.269537
5294.000000	32.312736
5292.000000	32.351468
5290.000000	32.398580
5288.000000	32.456120
5286.000000	32.516182
5284.000000	32.571115
5282.000000	32.625321
5280.000000	32.681322
5278.000000	32.738667
5276.000000	32.794191
5274.000000	32.845163
5272.000000	32.891513
5270.000000	32.936406
5268.000000	32.974615
5266.000000	33.007626
5264.000000	33.049450
5262.000000	33.112216
5260.000000	33.183190
5258.000000	33.238294
5256.000000	33.284012
5254.000000	33.335889
5252.000000	33.387218
5250.000000	33.428504
5248.000000	33.467665
5246.000000	33.521418
5244.000000	33.590233
5242.000000	33.661556
5240.000000	33.726044
5238.000000	33.779213
5236.000000	33.827749
5234.000000	33.874656
5232.000000	33.922401
5230.000000	33.968492
5228.000000	34.009997
5226.000000	34.055207
5224.000000	34.113023
5222.000000	34.178892
5220.000000	34.239284
5218.000000	34.295385
5216.000000	34.351886
5214.000000	34.405322
5212.000000	34.446236
5210.000000	34.474294
5208.000000	34.506576
5206.000000	34.564051
5204.000000	34.640903
5202.000000	34.713687
5200.000000	34.769509
5198.000000	34.819912
5196.000000	34.874742
5194.000000	34.933338
5192.000000	34.989318
5190.000000	35.041188
5188.000000	35.089316
5186.000000	35.139468
5184.000000	35.195228
5182.000000	35.255236
5180.000000	35.314321
5178.000000	35.370880
5176.000000	35.426939
5174.000000	35.480276
5172.000000	35.532649
5170.000000	35.588231
5168.000000	35.644824
5166.000000	35.697942
5164.000000	35.749159
5162.000000	35.803939
5160.000000	35.859796
5158.000000	35.913716
5156.000000	35.968158
5154.000000	36.024922
5152.000000	36.081249
5150.000000	36.136735
5148.000000	36.191631
5146.000000	36.245220
5144.000000	36.297566
5142.000000	36.351002
5140.000000	36.406741
5138.000000	36.462765
5136.000000	36.517544
5134.000000	36.571542
5132.000000	36.625588
5130.000000	36.680880
5128.000000	36.735771
5126.000000	36.790816
5124.000000	36.844549
5122.000000	36.897857
5120.000000	36.950836
5118.000000	37.004702
5116.000000	37.059276
5114.000000	37.114541
5112.000000	37.169774
5110.000000	37.224890
5108.000000	37.280490
5106.000000	37.337279
5104.000000	37.392863
5102.000000	37.447597
5100.000000	37.502571
5098.000000	37.559013
5096.000000	37.615342
5094.000000	37.671646
5092.000000	37.728122
5090.000000	37.785666
5088.000000	37.843398
5086.000000	37.900774
5084.000000	37.957112
5082.000000	38.013518
5080.000000	38.069891
5078.000000	38.125890
5076.000000	38.182329
5074.000000	38.239482
5072.000000	38.296074
5070.000000	38.352413
5068.000000	38.409277
5066.000000	38.467013
5064.000000	38.524177
5062.000000	38.581596
5060.000000	38.638316
5058.000000	38.694656
5056.000000	38.750056
5054.000000	38.805550
5052.000000	38.861689
5050.000000	38.918726
5048.000000	38.974783
5046.000000	39.029799
5044.000000	39.085259
5042.000000	39.142000
5040.000000	39.198573
5038.000000	39.255423
5036.000000	39.312225
5034.000000	39.367765
5032.000000	39.422144
5030.000000	39.477716
5028.000000	39.534025
5026.000000	39.590702
5024.000000	39.647214
5022.000000	39.703408
5020.000000	39.758439
5018.000000	39.814606
5016.000000	39.871543
5014.000000	39.928449
5012.000000	39.985107
5010.000000	40.042384
5008.000000	40.099560
5006.000000	40.157698
5004.000000	40.215555
5002.000000	40.273737
5000.000000	40.331521
4998.000000	40.389639
4996.000000	40.447198
4994.000000	40.505393
4992.000000	40.563898
4990.000000	40.622735
4988.000000	40.681034
4986.000000	40.739264
4984.000000	40.797259
4982.000000	40.855523
4980.000000	40.913815
4978.000000	40.972719
4976.000000	41.031712
4974.000000	41.090141
4972.000000	41.147406
4970.000000	41.204476
4968.000000	41.261912
4966.000000	41.320184
4964.000000	41.378703
4962.000000	41.437210
4960.000000	41.494871
4958.000000	41.552178
4956.000000	41.608943
4954.000000	41.666363
4952.000000	41.723986
4950.000000	41.781688
4948.000000	41.838530
4946.000000	41.894987
4944.000000	41.951326
4942.000000	42.007949
4940.000000	42.064614
4938.000000	42.120986
4936.000000	42.176289
4934.000000	42.232233
4932.000000	42.289786
4930.000000	42.349025
4928.000000	42.407217
4926.000000	42.464035
4924.000000	42.520041
4922.000000	42.576750
4920.000000	42.634357
4918.000000	42.692992
4916.000000	42.751152
4914.000000	42.809046
4912.000000	42.866574
4910.000000	42.924658
4908.000000	42.982568
4906.000000	43.040767
4904.000000	43.098316
4902.000000	43.156467
4900.000000	43.215684
4898.000000	43.276163
4896.000000	43.335620
4894.000000	43.395220
4892.000000	43.456484
4890.000000	43.518400
4888.000000	43.577277
4886.000000	43.634632
4884.000000	43.693343
4882.000000	43.753829
4880.000000	43.813888
4878.000000	43.873078
4876.000000	43.930821
4874.000000	43.988664
4872.000000	44.047263
4870.000000	44.106862
4868.000000	44.166036
4866.000000	44.225706
4864.000000	44.285092
4862.000000	44.343996
4860.000000	44.402637
4858.000000	44.461276
4856.000000	44.518389
4854.000000	44.575383
4852.000000	44.634041
4850.000000	44.693427
4848.000000	44.750392
4846.000000	44.806733
4844.000000	44.864568
4842.000000	44.924096
4840.000000	44.983041
4838.000000	45.040434
4836.000000	45.096114
4834.000000	45.153578
4832.000000	45.212893
4830.000000	45.271837
4828.000000	45.328945
4826.000000	45.386430
4824.000000	45.443476
4822.000000	45.501110
4820.000000	45.559855
4818.000000	45.619434
4816.000000	45.678593
4814.000000	45.736959
4812.000000	45.794340
4810.000000	45.853249
4808.000000	45.914317
4806.000000	45.976332
4804.000000	46.036585
4802.000000	46.095845
4800.000000	46.155398
4798.000000	46.217440
4796.000000	46.278749
4794.000000	46.338472
4792.000000	46.398558
4790.000000	46.460110
4788.000000	46.520641
4786.000000	46.580865
4784.000000	46.641871
4782.000000	46.703608
4780.000000	46.764242
4778.000000	46.824632
4776.000000	46.884182
4774.000000	46.943879
4772.000000	47.003451
4770.000000	47.063361
4768.000000	47.121636
4766.000000	47.179819
4764.000000	47.239012
4762.000000	47.299321
4760.000000	47.358642
4758.000000	47.417375
4756.000000	47.475721
4754.000000	47.534968
4752.000000	47.593699
4750.000000	47.651713
4748.000000	47.708232
4746.000000	47.765416
4744.000000	47.823815
4742.000000	47.882939
4740.000000	47.941142
4738.000000	47.999667
4736.000000	48.057275
4734.000000	48.114194
4732.000000	48.171807
4730.000000	48.231732
4728.000000	48.291198
4726.000000	48.350127
4724.000000	48.408966
4722.000000	48.469553
4720.000000	48.530341
4718.000000	48.591073
4716.000000	48.651706
4714.000000	48.714209
4712.000000	48.776514
4710.000000	48.837854
4708.000000	48.899542
4706.000000	48.964148
4704.000000	49.029983
4702.000000	49.095025
4700.000000	49.157482
4698.000000	49.219110
4696.000000	49.280701
4694.000000	49.342522
4692.000000	49.403479
4690.000000	49.465415
4688.000000	49.527943
4686.000000	49.590350
4684.000000	49.650742
4682.000000	49.711545
4680.000000	49.773926
4678.000000	49.836974
4676.000000	49.897864
4674.000000	49.958400
4672.000000	50.018942
4670.000000	50.079905
4668.000000	50.140846
4666.000000	50.202600
4664.000000	50.263924
4662.000000	50.324922
4660.000000	50.385965
4658.000000	50.448284
4656.000000	50.510126
4654.000000	50.571337
4652.000000	50.632624
4650.000000	50.694436
4648.000000	50.755028
4646.000000	50.815930
4644.000000	50.876977
4642.000000	50.938417
4640.000000	50.999486
4638.000000	51.060830
4636.000000	51.121853
4634.000000	51.183562
4632.000000	51.244625
4630.000000	51.305297
4628.000000	51.366086
4626.000000	51.427987
4624.000000	51.489235
4622.000000	51.550660
4620.000000	51.613238
4618.000000	51.677315
4616.000000	51.740665
4614.000000	51.804173
4612.000000	51.868118
4610.000000	51.933366
4608.000000	51.998505
4606.000000	52.063768
4604.000000	52.128651
4602.000000	52.194034
4600.000000	52.259536
4598.000000	52.325666
4596.000000	52.391100
4594.000000	52.455943
4592.000000	52.519542
4590.000000	52.583103
4588.000000	52.646713
4586.000000	52.711393
4584.000000	52.776400
4582.000000	52.842181
4580.000000	52.906576
4578.000000	52.969956
4576.000000	53.032869
4574.000000	53.097250
4572.000000	53.161306
4570.000000	53.225245
4568.000000	53.289452
4566.000000	53.354613
4564.000000	53.417998
4562.000000	53.480361
4560.000000	53.542241
4558.000000	53.605493
4556.000000	53.668846
4554.000000	53.731953
4552.000000	53.794253
4550.000000	53.857693
4548.000000	53.920678
4546.000000	53.982312
4544.000000	54.042822
4542.000000	54.105681
4540.000000	54.170124
4538.000000	54.234044
4536.000000	54.296072
4534.000000	54.359462
4532.000000	54.423462
4530.000000	54.487352
4528.000000	54.550368
4526.000000	54.613139
4524.000000	54.675434
4522.000000	54.740445
4520.000000	54.806484
4518.000000	54.871193
4516.000000	54.934522
4514.000000	54.999489
4512.000000	55.065627
4510.000000	55.131937
4508.000000	55.196645
4506.000000	55.261477
4504.000000	55.325884
4502.000000	55.391536
4500.000000	55.458481
4498.000000	55.525355
4496.000000	55.590264
4494.000000	55.655157
4492.000000	55.719668
4490.000000	55.784931
4488.000000	55.850163
4486.000000	55.914971
4484.000000	55.980085
4482.000000	56.046418
4480.000000	56.111297
4478.000000	56.175284
4476.000000	56.238087
4474.000000	56.300320
4472.000000	56.362734
4470.000000	56.426984
4468.000000	56.490166
4466.000000	56.552751
4464.000000	56.615654
4462.000000	56.679071
4460.000000	56.741568
4458.000000	56.804413
4456.000000	56.866352
4454.000000	56.928533
4452.000000	56.991422
4450.000000	57.054330
4448.000000	57.115650
4446.000000	57.178287
4444.000000	57.241420
4442.000000	57.303515
4440.000000	57.364173
4438.000000	57.426823
4436.000000	57.491105
4434.000000	57.555610
4432.000000	57.617754
4430.000000	57.679960
4428.000000	57.742819
4426.000000	57.806913
4424.000000	57.870555
4422.000000	57.933966
4420.000000	57.996936
4418.000000	58.061375
4416.000000	58.126046
4414.000000	58.190971
4412.000000	58.255348
4410.000000	58.320328
4408.000000	58.385339
4406.000000	58.451012
4404.000000	58.515273
4402.000000	58.578691
4400.000000	58.641910
4398.000000	58.707034
4396.000000	58.771814
4394.000000	58.835271
4392.000000	58.896814
4390.000000	58.959461
4388.000000	59.022236
4386.000000	59.084657
4384.000000	59.146497
4382.000000	59.209420
4380.000000	59.271930
4378.000000	59.333245
4376.000000	59.391887
4374.000000	59.450094
4372.000000	59.509523
4370.000000	59.570706
4368.000000	59.630753
4366.000000	59.690583
4364.000000	59.751410
4362.000000	59.814178
4360.000000	59.876574
4358.000000	59.937999
4356.000000	59.998228
4354.000000	60.060897
4352.000000	60.125281
4350.000000	60.190083
4348.000000	60.253870
4346.000000	60.317535
4344.000000	60.379961
4342.000000	60.442749
4340.000000	60.505794
4338.000000	60.569152
4336.000000	60.631046
4334.000000	60.692886
4332.000000	60.755720
4330.000000	60.822124
4328.000000	60.889002
4326.000000	60.954796
4324.000000	61.020383
4322.000000	61.087397
4320.000000	61.153623
4318.000000	61.221084
4316.000000	61.289992
4314.000000	61.358967
4312.000000	61.425501
4310.000000	61.491958
4308.000000	61.558754
4306.000000	61.626613
4304.000000	61.694046
4302.000000	61.760175
4300.000000	61.824824
4298.000000	61.890297
4296.000000	61.955485
4294.000000	62.020953
4292.000000	62.085696
4290.000000	62.149383
4288.000000	62.211288
4286.000000	62.273191
4284.000000	62.333818
4282.000000	62.393376
4280.000000	62.452729
4278.000000	62.514272
4276.000000	62.575571
4274.000000	62.635521
4272.000000	62.694033
4270.000000	62.753933
4268.000000	62.814023
4266.000000	62.873947
4264.000000	62.934050
4262.000000	62.995633
4260.000000	63.057862
4258.000000	63.121709
4256.000000	63.184611
4254.000000	63.246959
4252.000000	63.309708
4250.000000	63.373941
4248.000000	63.438461
4246.000000	63.503127
4244.000000	63.566665
4242.000000	63.631403
4240.000000	63.696105
4238.000000	63.760539
4236.000000	63.824579
4234.000000	63.889697
4232.000000	63.954630
4230.000000	64.019993
4228.000000	64.084528
4226.000000	64.148613
4224.000000	64.211889
4222.000000	64.276366
4220.000000	64.340846
4218.000000	64.405559
4216.000000	64.470009
4214.000000	64.535191
4212.000000	64.600686
4210.000000	64.667441
4208.000000	64.733520
4206.000000	64.799887
4204.000000	64.867287
4202.000000	64.936220
4200.000000	65.004126
4198.000000	65.072061
4196.000000	65.140341
4194.000000	65.209029
4192.000000	65.277090
4190.000000	65.346140
4188.000000	65.414164
4186.000000	65.481411
4184.000000	65.548234
4182.000000	65.615095
4180.000000	65.680735
4178.000000	65.746962
4176.000000	65.812500
4174.000000	65.877322
4172.000000	65.940816
4170.000000	66.004232
4168.000000	66.068350
4166.000000	66.134542
4164.000000	66.199369
4162.000000	66.262457
4160.000000	66.325471
4158.000000	66.389354
4156.000000	66.452894
4154.000000	66.519236
4152.000000	66.585738
4150.000000	66.649615
4148.000000	66.712137
4146.000000	66.776756
4144.000000	66.842341
4142.000000	66.907471
4140.000000	66.971661
4138.000000	67.037404
4136.000000	67.102973
4134.000000	67.168843
4132.000000	67.235601
4130.000000	67.303046
4128.000000	67.369094
4126.000000	67.434883
4124.000000	67.501385
4122.000000	67.569209
4120.000000	67.634605
4118.000000	67.699746
4116.000000	67.767235
4114.000000	67.835106
4112.000000	67.899747
4110.000000	67.962639
4108.000000	68.024424
4106.000000	68.088881
4104.000000	68.155897
4102.000000	68.223332
4100.000000	68.288057
4098.000000	68.351028
4096.000000	68.413497
4094.000000	68.478427
4092.000000	68.544449
4090.000000	68.610259
4088.000000	68.677106
4086.000000	68.748546
4084.000000	68.819565
4082.000000	68.887514
4080.000000	68.954589
4078.000000	69.022906
4076.000000	69.089596
4074.000000	69.155666
4072.000000	69.221096
4070.000000	69.286534
4068.000000	69.351375
4066.000000	69.416584
4064.000000	69.481107
4062.000000	69.545756
4060.000000	69.610483
4058.000000	69.676027
4056.000000	69.741030
4054.000000	69.805750
4052.000000	69.869758
4050.000000	69.934601
4048.000000	69.995503
4046.000000	70.053210
4044.000000	70.117627
4042.000000	70.190972
4040.000000	70.262190
4038.000000	70.329624
4036.000000	70.395668
4034.000000	70.462186
4032.000000	70.529245
4030.000000	70.596494
4028.000000	70.660622
4026.000000	70.725787
4024.000000	70.795189
4022.000000	70.864282
4020.000000	70.930280
4018.000000	70.999526
4016.000000	71.071620
4014.000000	71.142502
4012.000000	71.208296
4010.000000	71.272441
4008.000000	71.340526
4006.000000	71.413479
4004.000000	71.485499
4002.000000	71.555244
4000.000000	71.621707
3998.000000	71.684450
3996.000000	71.744795
3994.000000	71.806928
3992.000000	71.870136
3990.000000	71.937553
3988.000000	72.008042
3986.000000	72.074512
3984.000000	72.135117
3982.000000	72.196737
3980.000000	72.258430
3978.000000	72.315403
3976.000000	72.369302
3974.000000	72.428737
3972.000000	72.493000
3970.000000	72.560074
3968.000000	72.629354
3966.000000	72.692229
3964.000000	72.739607
3962.000000	72.790372
3960.000000	72.857071
3958.000000	72.926247
3956.000000	72.988218
3954.000000	73.038011
3952.000000	73.062597
3950.000000	73.083825
3948.000000	73.142265
3946.000000	73.210659
3944.000000	73.253499
3942.000000	73.329977
3940.000000	73.450422
3938.000000	73.546320
3936.000000	73.571389
3934.000000	73.543546
3932.000000	73.566502
3930.000000	73.684133
3928.000000	73.785044
3926.000000	73.824003
3924.000000	73.874897
3922.000000	73.923927
3920.000000	73.912665
3918.000000	73.930789
3916.000000	74.086152
3914.000000	74.295361
3912.000000	74.430406
3910.000000	74.477513
3908.000000	74.377943
3906.000000	74.099547
3904.000000	73.860586
3902.000000	73.863798
3900.000000	74.100448
3898.000000	74.478222
3896.000000	74.749965
3894.000000	74.703331
3892.000000	74.586163
3890.000000	74.661169
3888.000000	74.640855
3886.000000	74.549774
3884.000000	74.699248
3882.000000	74.871561
3880.000000	75.017567
3878.000000	75.216413
3876.000000	75.254287
3874.000000	75.099565
3872.000000	74.809706
3870.000000	74.701079
3868.000000	74.939332
3866.000000	75.128909
3864.000000	75.257554
3862.000000	75.521595
3860.000000	75.738545
3858.000000	75.424570
3856.000000	74.319978
3854.000000	73.546498
3852.000000	74.219493
3850.000000	75.491608
3848.000000	76.184951
3846.000000	76.267288
3844.000000	76.132550
3842.000000	75.886894
3840.000000	75.432722
3838.000000	75.208120
3836.000000	75.592939
3834.000000	76.105547
3832.000000	76.414669
3830.000000	76.643947
3828.000000	76.781463
3826.000000	76.790425
3824.000000	76.532161
3822.000000	76.208691
3820.000000	76.209322
3818.000000	76.184727
3816.000000	76.251426
3814.000000	76.842437
3812.000000	77.360446
3810.000000	77.267558
3808.000000	76.927263
3806.000000	76.885499
3804.000000	76.780096
3802.000000	76.553137
3800.000000	76.868373
3798.000000	77.400012
3796.000000	77.715393
3794.000000	77.968818
3792.000000	78.145492
3790.000000	78.221615
3788.000000	78.243037
3786.000000	78.250225
3784.000000	78.278003
3782.000000	78.257565
3780.000000	78.230165
3778.000000	78.365904
3776.000000	78.564041
3774.000000	78.600773
3772.000000	78.434256
3770.000000	78.318191
3768.000000	78.408278
3766.000000	78.571700
3764.000000	78.721546
3762.000000	78.728925
3760.000000	78.644795
3758.000000	78.685326
3756.000000	78.577070
3754.000000	77.921188
3752.000000	77.202337
3750.000000	77.211383
3748.000000	77.486399
3746.000000	77.234886
3744.000000	77.404639
3742.000000	78.419817
3740.000000	78.954378
3738.000000	78.667293
3736.000000	78.384286
3734.000000	78.500044
3732.000000	78.911116
3730.000000	79.394563
3728.000000	79.602025
3726.000000	79.620771
3724.000000	79.693594
3722.000000	79.824326
3720.000000	79.996398
3718.000000	80.145047
3716.000000	80.067864
3714.000000	79.650643
3712.000000	79.368303
3710.000000	79.641636
3708.000000	80.154742
3706.000000	80.460516
3704.000000	80.456499
3702.000000	80.419073
3700.000000	80.579221
3698.000000	80.768536
3696.000000	80.820563
3694.000000	80.663864
3692.000000	80.192299
3690.000000	79.659895
3688.000000	79.788634
3686.000000	80.530680
3684.000000	81.037168
3682.000000	81.090263
3680.000000	80.822668
3678.000000	80.164638
3676.000000	79.678432
3674.000000	79.856464
3672.000000	79.990755
3670.000000	80.126837
3668.000000	80.747417
3666.000000	81.331060
3664.000000	81.548531
3662.000000	81.581604
3660.000000	81.463763
3658.000000	81.169335
3656.000000	81.056348
3654.000000	81.077534
3652.000000	80.644186
3650.000000	80.136005
3648.000000	80.363453
3646.000000	81.077696
3644.000000	81.582061
3642.000000	81.750239
3640.000000	81.790991
3638.000000	81.794049
3636.000000	81.744714
3634.000000	81.605191
3632.000000	81.144124
3630.000000	80.549730
3628.000000	80.689504
3626.000000	81.391554
3624.000000	81.738042
3622.000000	81.548160
3620.000000	81.264234
3618.000000	81.309421
3616.000000	81.472230
3614.000000	81.451952
3612.000000	81.342559
3610.000000	81.267888
3608.000000	81.396892
3606.000000	81.691720
3604.000000	81.855730
3602.000000	81.842902
3600.000000	81.803675
3598.000000	81.767641
3596.000000	81.718963
3594.000000	81.731857
3592.000000	81.715427
3590.000000	81.496452
3588.000000	81.318030
3586.000000	81.472329
3584.000000	81.741076
3582.000000	81.862829
3580.000000	81.875608
3578.000000	81.871589
3576.000000	81.869761
3574.000000	81.868119
3572.000000	81.801070
3570.000000	81.567279
3568.000000	81.332002
3566.000000	81.385078
3564.000000	81.605705
3562.000000	81.734449
3560.000000	81.775604
3558.000000	81.801123
3556.000000	81.790009
3554.000000	81.734973
3552.000000	81.703271
3550.000000	81.686270
3548.000000	81.612836
3546.000000	81.559387
3544.000000	81.607830
3542.000000	81.685037
3540.000000	81.705387
3538.000000	81.672334
3536.000000	81.644344
3534.000000	81.637916
3532.000000	81.601036
3530.000000	81.525318
3528.000000	81.456496
3526.000000	81.408830
3524.000000	81.375485
3522.000000	81.372673
3520.000000	81.376474
3518.000000	81.359445
3516.000000	81.329362
3514.000000	81.283583
3512.000000	81.216227
3510.000000	81.153178
3508.000000	81.115401
3506.000000	81.054393
3504.000000	80.962936
3502.000000	80.915024
3500.000000	80.901842
3498.000000	80.860551
3496.000000	80.804212
3494.000000	80.760307
3492.000000	80.711989
3490.000000	80.648533
3488.000000	80.589050
3486.000000	80.545918
3484.000000	80.498703
3482.000000	80.455239
3480.000000	80.443808
3478.000000	80.448177
3476.000000	80.446470
3474.000000	80.449403
3472.000000	80.458509
3470.000000	80.462584
3468.000000	80.471803
3466.000000	80.500823
3464.000000	80.537206
3462.000000	80.574247
3460.000000	80.617174
3458.000000	80.659146
3456.000000	80.694600
3454.000000	80.724529
3452.000000	80.745206
3450.000000	80.741405
3448.000000	80.728654
3446.000000	80.755324
3444.000000	80.812644
3442.000000	80.876401
3440.000000	80.953340
3438.000000	81.040246
3436.000000	81.137746
3434.000000	81.257830
3432.000000	81.398016
3430.000000	81.543222
3428.000000	81.688544
3426.000000	81.826779
3424.000000	81.944220
3422.000000	82.045281
3420.000000	82.156270
3418.000000	82.277208
3416.000000	82.380018
3414.000000	82.460489
3412.000000	82.532454
3410.000000	82.599265
3408.000000	82.659781
3406.000000	82.715715
3404.000000	82.764413
3402.000000	82.806751
3400.000000	82.860591
3398.000000	82.937980
3396.000000	83.021885
3394.000000	83.088458
3392.000000	83.152457
3390.000000	83.235586
3388.000000	83.317070
3386.000000	83.381111
3384.000000	83.441874
3382.000000	83.501982
3380.000000	83.556149
3378.000000	83.607294
3376.000000	83.657687
3374.000000	83.704548
3372.000000	83.740359
3370.000000	83.766109
3368.000000	83.801720
3366.000000	83.854359
3364.000000	83.910435
3362.000000	83.960516
3360.000000	84.007411
3358.000000	84.051834
3356.000000	84.094239
3354.000000	84.136875
3352.000000	84.176455
3350.000000	84.216517
3348.000000	84.263238
3346.000000	84.309046
3344.000000	84.349965
3342.000000	84.388007
3340.000000	84.421118
3338.000000	84.453384
3336.000000	84.496926
3334.000000	84.546137
3332.000000	84.590392
3330.000000	84.628891
3328.000000	84.662721
3326.000000	84.694307
3324.000000	84.732808
3322.000000	84.776045
3320.000000	84.815324
3318.000000	84.850852
3316.000000	84.884224
3314.000000	84.915446
3312.000000	84.944057
3310.000000	84.966656
3308.000000	84.987159
3306.000000	85.015019
3304.000000	85.060825
3302.000000	85.114122
3300.000000	85.157204
3298.000000	85.191587
3296.000000	85.222681
3294.000000	85.249934
3292.000000	85.280681
3290.000000	85.324888
3288.000000	85.373641
3286.000000	85.415259
3284.000000	85.451639
3282.000000	85.488389
3280.000000	85.525308
3278.000000	85.558257
3276.000000	85.588670
3274.000000	85.621804
3272.000000	85.659806
3270.000000	85.705631
3268.000000	85.757800
3266.000000	85.805730
3264.000000	85.849524
3262.000000	85.891353
3260.000000	85.933931
3258.000000	85.975926
3256.000000	86.016737
3254.000000	86.063666
3252.000000	86.118056
3250.000000	86.167850
3248.000000	86.209015
3246.000000	86.249920
3244.000000	86.301976
3242.000000	86.358286
3240.000000	86.410435
3238.000000	86.459489
3236.000000	86.503952
3234.000000	86.543418
3232.000000	86.594159
3230.000000	86.652922
3228.000000	86.707163
3226.000000	86.760467
3224.000000	86.811201
3222.000000	86.855478
3220.000000	86.899032
3218.000000	86.948373
3216.000000	86.998503
3214.000000	87.046204
3212.000000	87.097459
3210.000000	87.151825
3208.000000	87.212834
3206.000000	87.278455
3204.000000	87.346178
3202.000000	87.414954
3200.000000	87.483023
3198.000000	87.551740
3196.000000	87.627944
3194.000000	87.706677
3192.000000	87.781222
3190.000000	87.852616
3188.000000	87.922854
3186.000000	87.991819
3184.000000	88.063994
3182.000000	88.136915
3180.000000	88.204692
3178.000000	88.272913
3176.000000	88.349733
3174.000000	88.427984
3172.000000	88.503675
3170.000000	88.576640
3168.000000	88.649950
3166.000000	88.725202
3164.000000	88.801830
3162.000000	88.879298
3160.000000	88.959224
3158.000000	89.038885
3156.000000	89.114692
3154.000000	89.182714
3152.000000	89.254961
3150.000000	89.341168
3148.000000	89.427578
3146.000000	89.506059
3144.000000	89.581451
3142.000000	89.653116
3140.000000	89.722691
3138.000000	89.794761
3136.000000	89.866006
3134.000000	89.930282
3132.000000	89.998180
3130.000000	90.068151
3128.000000	90.133067
3126.000000	90.193662
3124.000000	90.250317
3122.000000	90.299600
3120.000000	90.345526
3118.000000	90.393588
3116.000000	90.450605
3114.000000	90.518549
3112.000000	90.583613
3110.000000	90.634938
3108.000000	90.687280
3106.000000	90.748827
3104.000000	90.807626
3102.000000	90.862102
3100.000000	90.925610
3098.000000	90.993119
3096.000000	91.058093
3094.000000	91.125479
3092.000000	91.192143
3090.000000	91.252757
3088.000000	91.311209
3086.000000	91.363034
3084.000000	91.407389
3082.000000	91.447749
3080.000000	91.483856
3078.000000	91.523212
3076.000000	91.569644
3074.000000	91.605149
3072.000000	91.624439
3070.000000	91.631062
3068.000000	91.632298
3066.000000	91.647079
3064.000000	91.686920
3062.000000	91.740241
3060.000000	91.795161
3058.000000	91.848642
3056.000000	91.908711
3054.000000	91.974382
3052.000000	92.032664
3050.000000	92.082111
3048.000000	92.132729
3046.000000	92.175225
3044.000000	92.203559
3042.000000	92.227785
3040.000000	92.256391
3038.000000	92.278676
3036.000000	92.287573
3034.000000	92.283986
3032.000000	92.269889
3030.000000	92.240252
3028.000000	92.178272
3026.000000	92.071743
3024.000000	91.942493
3022.000000	91.825771
3020.000000	91.760448
3018.000000	91.785067
3016.000000	91.923074
3014.000000	92.155704
3012.000000	92.441092
3010.000000	92.724005
3008.000000	92.957933
3006.000000	93.123125
3004.000000	93.236549
3002.000000	93.319433
3000.000000	93.379007
2998.000000	93.418971
2996.000000	93.448663
2994.000000	93.467015
2992.000000	93.476834
2990.000000	93.478795
2988.000000	93.466216
2986.000000	93.432476
2984.000000	93.374539
2982.000000	93.286510
2980.000000	93.165245
2978.000000	92.999609
2976.000000	92.772973
2974.000000	92.466694
2972.000000	92.071024
2970.000000	91.588257
2968.000000	91.062465
2966.000000	90.575518
2964.000000	90.217074
2962.000000	90.042824
2960.000000	90.056693
2958.000000	90.199924
2956.000000	90.392755
2954.000000	90.577269
2952.000000	90.722317
2950.000000	90.793173
2948.000000	90.755097
2946.000000	90.589631
2944.000000	90.296379
2942.000000	89.885334
2940.000000	89.391762
2938.000000	88.875827
2936.000000	88.400249
2934.000000	87.977420
2932.000000	87.577854
2930.000000	87.186062
2928.000000	86.856270
2926.000000	86.690342
2924.000000	86.797727
2922.000000	87.219482
2920.000000	87.897681
2918.000000	88.716720
2916.000000	89.570600
2914.000000	90.373944
2912.000000	91.069424
2910.000000	91.626978
2908.000000	92.060804
2906.000000	92.410618
2904.000000	92.713649
2902.000000	92.989497
2900.000000	93.247495
2898.000000	93.487319
2896.000000	93.713400
2894.000000	93.928399
2892.000000	94.133959
2890.000000	94.322207
2888.000000	94.485568
2886.000000	94.613484
2884.000000	94.702179
2882.000000	94.746118
2880.000000	94.743838
2878.000000	94.690434
2876.000000	94.578011
2874.000000	94.397067
2872.000000	94.141367
2870.000000	93.781389
2868.000000	93.293523
2866.000000	92.716312
2864.000000	92.172817
2862.000000	91.815601
2860.000000	91.738607
2858.000000	91.906521
2856.000000	92.210185
2854.000000	92.568959
2852.000000	92.982541
2850.000000	93.490577
2848.000000	94.096595
2846.000000	94.718461
2844.000000	95.262793
2842.000000	95.696612
2840.000000	96.035918
2838.000000	96.306205
2836.000000	96.530389
2834.000000	96.714956
2832.000000	96.871988
2830.000000	97.008277
2828.000000	97.129219
2826.000000	97.238706
2824.000000	97.341548
2822.000000	97.435895
2820.000000	97.522448
2818.000000	97.600709
2816.000000	97.671991
2814.000000	97.734105
2812.000000	97.792065
2810.000000	97.845758
2808.000000	97.896240
2806.000000	97.943603
2804.000000	97.989472
2802.000000	98.032741
2800.000000	98.075506
2798.000000	98.115696
2796.000000	98.157622
2794.000000	98.199066
2792.000000	98.245387
2790.000000	98.299742
2788.000000	98.369029
2786.000000	98.451505
2784.000000	98.538494
2782.000000	98.619688
2780.000000	98.694438
2778.000000	98.760989
2776.000000	98.822255
2774.000000	98.879800
2772.000000	98.936315
2770.000000	98.987687
2768.000000	99.037245
2766.000000	99.085144
2764.000000	99.133226
2762.000000	99.179732
2760.000000	99.226156
2758.000000	99.269785
2756.000000	99.312658
2754.000000	99.353798
2752.000000	99.394590
2750.000000	99.432003
2748.000000	99.468876
2746.000000	99.504113
2744.000000	99.539619
2742.000000	99.573037
2740.000000	99.607496
2738.000000	99.641646
2736.000000	99.675708
2734.000000	99.707998
2732.000000	99.741628
2730.000000	99.774876
2728.000000	99.807784
2726.000000	99.837496
2724.000000	99.869371
2722.000000	99.900237
2720.000000	99.931729
2718.000000	99.962204
2716.000000	99.992180
2714.000000	100.019758
2712.000000	100.045712
2710.000000	100.068105
2708.000000	100.091862
2706.000000	100.116465
2704.000000	100.145529
2702.000000	100.181022
2700.000000	100.225092
2698.000000	100.270808
2696.000000	100.317916
2694.000000	100.362191
2692.000000	100.405144
2690.000000	100.446266
2688.000000	100.487948
2686.000000	100.527443
2684.000000	100.567236
2682.000000	100.603226
2680.000000	100.636869
2678.000000	100.669587
2676.000000	100.703124
2674.000000	100.733488
2672.000000	100.764560
2670.000000	100.794109
2668.000000	100.823555
2666.000000	100.851954
2664.000000	100.880592
2662.000000	100.907566
2660.000000	100.937334
2658.000000	100.967612
2656.000000	101.000916
2654.000000	101.035421
2652.000000	101.074081
2650.000000	101.113843
2648.000000	101.154124
2646.000000	101.191453
2644.000000	101.228468
2642.000000	101.264301
2640.000000	101.299868
2638.000000	101.333228
2636.000000	101.367335
2634.000000	101.399199
2632.000000	101.430455
2630.000000	101.458872
2628.000000	101.486933
2626.000000	101.513678
2624.000000	101.542156
2622.000000	101.569103
2620.000000	101.596908
2618.000000	101.623041
2616.000000	101.650696
2614.000000	101.675964
2612.000000	101.699149
2610.000000	101.718888
2608.000000	101.737497
2606.000000	101.752957
2604.000000	101.768405
2602.000000	101.780646
2600.000000	101.791401
2598.000000	101.799590
2596.000000	101.810342
2594.000000	101.823721
2592.000000	101.845315
2590.000000	101.875086
2588.000000	101.917906
2586.000000	101.970175
2584.000000	102.029179
2582.000000	102.089357
2580.000000	102.152037
2578.000000	102.209752
2576.000000	102.263077
2574.000000	102.308944
2572.000000	102.352336
2570.000000	102.391967
2568.000000	102.429388
2566.000000	102.462153
2564.000000	102.493666
2562.000000	102.523601
2560.000000	102.553514
2558.000000	102.580566
2556.000000	102.608618
2554.000000	102.634399
2552.000000	102.660414
2550.000000	102.684435
2548.000000	102.709376
2546.000000	102.734072
2544.000000	102.762165
2542.000000	102.788232
2540.000000	102.813932
2538.000000	102.838533
2536.000000	102.865839
2534.000000	102.890791
2532.000000	102.916432
2530.000000	102.940963
2528.000000	102.966339
2526.000000	102.989444
2524.000000	103.014337
2522.000000	103.038219
2520.000000	103.062402
2518.000000	103.084566
2516.000000	103.109198
2514.000000	103.132118
2512.000000	103.154766
2510.000000	103.174776
2508.000000	103.195901
2506.000000	103.216076
2504.000000	103.236948
2502.000000	103.256218
2500.000000	103.279028
2498.000000	103.301599
2496.000000	103.326940
2494.000000	103.353002
2492.000000	103.380500
2490.000000	103.405838
2488.000000	103.432635
2486.000000	103.457271
2484.000000	103.484293
2482.000000	103.508463
2480.000000	103.532887
2478.000000	103.554515
2476.000000	103.577934
2474.000000	103.599053
2472.000000	103.619842
2470.000000	103.636174
2468.000000	103.652930
2466.000000	103.669237
2464.000000	103.686792
2462.000000	103.701835
2460.000000	103.718321
2458.000000	103.733864
2456.000000	103.751826
2454.000000	103.766863
2452.000000	103.783205
2450.000000	103.799227
2448.000000	103.815957
2446.000000	103.830494
2444.000000	103.845885
2442.000000	103.859585
2440.000000	103.874937
2438.000000	103.888633
2436.000000	103.903252
2434.000000	103.915110
2432.000000	103.928694
2430.000000	103.939510
2428.000000	103.949641
2426.000000	103.961122
2424.000000	103.977579
2422.000000	103.992144
2420.000000	104.006852
2418.000000	104.017919
2416.000000	104.030260
2414.000000	104.041391
2412.000000	104.054049
2410.000000	104.064180
2408.000000	104.076587
2406.000000	104.089283
2404.000000	104.104359
2402.000000	104.117832
2400.000000	104.133881
2398.000000	104.149237
2396.000000	104.166580
2394.000000	104.182312
2392.000000	104.199620
2390.000000	104.214573
2388.000000	104.226351
2386.000000	104.227129
2384.000000	104.213231
2382.000000	104.169501
2380.000000	104.087009
2378.000000	103.950561
2376.000000	103.759124
2374.000000	103.513802
2372.000000	103.230329
2370.000000	102.927963
2368.000000	102.640999
2366.000000	102.399880
2364.000000	102.240755
2362.000000	102.185787
2360.000000	102.249634
2358.000000	102.431083
2356.000000	102.725173
2354.000000	103.107133
2352.000000	103.535317
2350.000000	103.846605
2348.000000	103.829471
2346.000000	103.548473
2344.000000	103.250958
2342.000000	103.033933
2340.000000	102.909405
2338.000000	102.854443
2336.000000	102.852205
2334.000000	102.888855
2332.000000	102.961151
2330.000000	103.062924
2328.000000	103.192748
2326.000000	103.333234
2324.000000	103.478642
2322.000000	103.621756
2320.000000	103.760728
2318.000000	103.885967
2316.000000	104.000527
2314.000000	104.099559
2312.000000	104.186054
2310.000000	104.257701
2308.000000	104.319167
2306.000000	104.367439
2304.000000	104.408490
2302.000000	104.440747
2300.000000	104.470140
2298.000000	104.492185
2296.000000	104.513120
2294.000000	104.530415
2292.000000	104.547033
2290.000000	104.559443
2288.000000	104.573989
2286.000000	104.583350
2284.000000	104.590056
2282.000000	104.589253
2280.000000	104.586534
2278.000000	104.580393
2276.000000	104.577039
2274.000000	104.571245
2272.000000	104.567159
2270.000000	104.560252
2268.000000	104.554954
2266.000000	104.548346
2264.000000	104.546205
2262.000000	104.542537
2260.000000	104.540820
2258.000000	104.538307
2256.000000	104.540242
2254.000000	104.540768
2252.000000	104.544973
2250.000000	104.549051
2248.000000	104.557423
2246.000000	104.565134
2244.000000	104.576939
2242.000000	104.588598
2240.000000	104.602305
2238.000000	104.613225
2236.000000	104.628993
2234.000000	104.641425
2232.000000	104.655646
2230.000000	104.666249
2228.000000	104.678393
2226.000000	104.688755
2224.000000	104.701162
2222.000000	104.709776
2220.000000	104.718798
2218.000000	104.724037
2216.000000	104.731490
2214.000000	104.735695
2212.000000	104.740715
2210.000000	104.743011
2208.000000	104.749858
2206.000000	104.752695
2204.000000	104.758121
2202.000000	104.761594
2200.000000	104.766168
2198.000000	104.768618
2196.000000	104.773267
2194.000000	104.773160
2192.000000	104.774499
2190.000000	104.772970
2188.000000	104.773460
2186.000000	104.772227
2184.000000	104.773895
2182.000000	104.771584
2180.000000	104.771861
2178.000000	104.770003
2176.000000	104.769017
2174.000000	104.757645
2172.000000	104.733071
2170.000000	104.708343
2168.000000	104.722514
2166.000000	104.744290
2164.000000	104.750987
2162.000000	104.748598
2160.000000	104.748730
2158.000000	104.744715
2156.000000	104.746286
2154.000000	104.744505
2152.000000	104.742830
2150.000000	104.739977
2148.000000	104.739989
2146.000000	104.737363
2144.000000	104.739612
2142.000000	104.736897
2140.000000	104.734262
2138.000000	104.728823
2136.000000	104.726574
2134.000000	104.724545
2132.000000	104.725104
2130.000000	104.721988
2128.000000	104.722530
2126.000000	104.720635
2124.000000	104.722094
2122.000000	104.722926
2120.000000	104.726432
2118.000000	104.726615
2116.000000	104.729000
2114.000000	104.734746
2112.000000	104.746113
2110.000000	104.754940
2108.000000	104.768054
2106.000000	104.780684
2104.000000	104.795317
2102.000000	104.804394
2100.000000	104.816235
2098.000000	104.826636
2096.000000	104.841763
2094.000000	104.852674
2092.000000	104.863652
2090.000000	104.871404
2088.000000	104.890278
2086.000000	104.906780
2084.000000	104.926503
2082.000000	104.940270
2080.000000	104.956607
2078.000000	104.968753
2076.000000	104.987629
2074.000000	105.003530
2072.000000	105.024595
2070.000000	105.040801
2068.000000	105.052863
2066.000000	105.054457
2064.000000	105.079796
2062.000000	105.113313
2060.000000	105.139999
2058.000000	105.160575
2056.000000	105.183389
2054.000000	105.202486
2052.000000	105.224229
2050.000000	105.241928
2048.000000	105.264474
2046.000000	105.279574
2044.000000	105.291889
2042.000000	105.298064
2040.000000	105.321786
2038.000000	105.345908
2036.000000	105.362689
2034.000000	105.370731
2032.000000	105.370799
2030.000000	105.349954
2028.000000	105.360061
2026.000000	105.394980
2024.000000	105.418620
2022.000000	105.424529
2020.000000	105.417555
2018.000000	105.397803
2016.000000	105.424615
2014.000000	105.475082
2012.000000	105.505678
2010.000000	105.517874
2008.000000	105.533519
2006.000000	105.548108
2004.000000	105.561819
2002.000000	105.565257
2000.000000	105.568478
1998.000000	105.572208
1996.000000	105.570963
1994.000000	105.511944
1992.000000	105.460631
1990.000000	105.499619
1988.000000	105.545037
1986.000000	105.561281
1984.000000	105.564861
1982.000000	105.554374
1980.000000	105.543249
1978.000000	105.528495
1976.000000	105.514769
1974.000000	105.496793
1972.000000	105.479039
1970.000000	105.430639
1968.000000	105.355205
1966.000000	105.338694
1964.000000	105.361720
1962.000000	105.310456
1960.000000	105.189537
1958.000000	105.157013
1956.000000	105.236928
1954.000000	105.264283
1952.000000	105.249506
1950.000000	105.216054
1948.000000	105.185783
1946.000000	105.122043
1944.000000	104.998917
1942.000000	104.953362
1940.000000	105.058878
1938.000000	105.095452
1936.000000	105.076651
1934.000000	105.044066
1932.000000	105.019663
1930.000000	104.990549
1928.000000	104.962824
1926.000000	104.892121
1924.000000	104.771590
1922.000000	104.706670
1920.000000	104.583347
1918.000000	104.423311
1916.000000	104.566488
1914.000000	104.669592
1912.000000	104.604783
1910.000000	104.497171
1908.000000	104.464768
1906.000000	104.449579
1904.000000	104.416435
1902.000000	104.362414
1900.000000	104.318792
1898.000000	104.245746
1896.000000	104.163433
1894.000000	104.127676
1892.000000	104.063820
1890.000000	103.921019
1888.000000	103.978934
1886.000000	104.067650
1884.000000	104.073910
1882.000000	104.057538
1880.000000	104.041944
1878.000000	104.012521
1876.000000	103.995830
1874.000000	103.952729
1872.000000	103.764557
1870.000000	103.379201
1868.000000	103.342999
1866.000000	103.625344
1864.000000	103.776628
1862.000000	103.764645
1860.000000	103.731656
1858.000000	103.698179
1856.000000	103.680188
1854.000000	103.642325
1852.000000	103.604118
1850.000000	103.510937
1848.000000	103.321347
1846.000000	102.782959
1844.000000	102.458480
1842.000000	102.937715
1840.000000	103.266368
1838.000000	103.213647
1836.000000	103.163897
1834.000000	103.087318
1832.000000	102.760446
1830.000000	102.430951
1828.000000	102.519886
1826.000000	102.488969
1824.000000	102.523432
1822.000000	102.692022
1820.000000	102.688694
1818.000000	102.591833
1816.000000	102.533651
1814.000000	102.431876
1812.000000	102.230300
1810.000000	102.113117
1808.000000	102.130731
1806.000000	102.078496
1804.000000	101.876311
1802.000000	101.548305
1800.000000	101.402799
1798.000000	101.446826
1796.000000	101.309048
1794.000000	100.661806
1792.000000	100.315970
1790.000000	100.754886
1788.000000	101.004925
1786.000000	100.769609
1784.000000	100.621305
1782.000000	100.537232
1780.000000	100.438824
1778.000000	100.406287
1776.000000	100.073218
1774.000000	99.138978
1772.000000	98.682156
1770.000000	99.148351
1768.000000	99.425534
1766.000000	99.704754
1764.000000	99.540178
1762.000000	99.115322
1760.000000	99.187773
1758.000000	99.125046
1756.000000	98.995385
1754.000000	98.773667
1752.000000	97.968521
1750.000000	97.723847
1748.000000	98.018043
1746.000000	98.142987
1744.000000	98.006602
1742.000000	97.624075
1740.000000	97.248236
1738.000000	97.237534
1736.000000	96.217038
1734.000000	95.167402
1732.000000	96.193834
1730.000000	97.174632
1728.000000	97.434055
1726.000000	97.446808
1724.000000	97.339812
1722.000000	97.142786
1720.000000	96.152259
1718.000000	94.776294
1716.000000	95.058403
1714.000000	96.107798
1712.000000	96.645056
1710.000000	96.609656
1708.000000	96.241363
1706.000000	95.777787
1704.000000	95.534529
1702.000000	94.242731
1700.000000	93.281993
1698.000000	93.658607
1696.000000	93.574743
1694.000000	94.801561
1692.000000	95.883115
1690.000000	95.819447
1688.000000	95.286737
1686.000000	93.532480
1684.000000	92.866501
1682.000000	94.461884
1680.000000	95.393231
1678.000000	95.206389
1676.000000	94.457784
1674.000000	94.469260
1672.000000	94.557275
1670.000000	94.098725
1668.000000	94.405667
1666.000000	94.852846
1664.000000	94.490049
1662.000000	94.318031
1660.000000	94.637288
1658.000000	94.546516
1656.000000	93.091103
1654.000000	90.370923
1652.000000	90.594599
1650.000000	92.771901
1648.000000	92.644182
1646.000000	92.270015
1644.000000	93.119741
1642.000000	93.625188
1640.000000	93.371810
1638.000000	92.379730
1636.000000	91.216687
1634.000000	91.772319
1632.000000	92.676392
1630.000000	92.524532
1628.000000	92.079955
1626.000000	91.644392
1624.000000	90.981630
1622.000000	90.706032
1620.000000	90.357697
1618.000000	89.001281
1616.000000	88.447191
1614.000000	89.013236
1612.000000	88.763379
1610.000000	88.120446
1608.000000	87.796644
1606.000000	87.851268
1604.000000	88.049120
1602.000000	88.297158
1600.000000	88.547876
1598.000000	88.756219
1596.000000	88.887751
1594.000000	89.002373
1592.000000	89.081313
1590.000000	89.092531
1588.000000	89.062087
1586.000000	88.997542
1584.000000	88.919527
1582.000000	88.864866
1580.000000	88.664385
1578.000000	87.590493
1576.000000	86.833106
1574.000000	87.830424
1572.000000	88.158371
1570.000000	87.608628
1568.000000	87.722269
1566.000000	87.867173
1564.000000	87.538766
1562.000000	86.107800
1560.000000	83.719668
1558.000000	83.766213
1556.000000	85.489402
1554.000000	86.421037
1552.000000	87.118272
1550.000000	87.493371
1548.000000	87.680348
1546.000000	87.434217
1544.000000	86.845698
1542.000000	85.842169
1540.000000	85.277428
1538.000000	86.801429
1536.000000	88.310001
1534.000000	88.304948
1532.000000	88.683466
1530.000000	89.077086
1528.000000	88.826281
1526.000000	88.443042
1524.000000	87.971116
1522.000000	87.092298
1520.000000	87.278820
1518.000000	87.803515
1516.000000	87.866748
1514.000000	87.934031
1512.000000	87.721410
1510.000000	87.040206
1508.000000	85.294604
1506.000000	84.493859
1504.000000	85.395670
1502.000000	84.966045
1500.000000	82.411491
1498.000000	78.903551
1496.000000	76.378961
1494.000000	76.228417
1492.000000	77.309055
1490.000000	78.921654
1488.000000	80.933909
1486.000000	82.682737
1484.000000	83.833727
1482.000000	84.346652
1480.000000	84.579563
1478.000000	84.424096
1476.000000	83.898444
1474.000000	83.122838
1472.000000	82.949842
1470.000000	83.537957
1468.000000	83.520573
1466.000000	82.781867
1464.000000	82.387537
1462.000000	82.246204
1460.000000	81.084950
1458.000000	78.934510
1456.000000	77.959326
1454.000000	78.158590
1452.000000	77.886104
1450.000000	77.932147
1448.000000	78.706886
1446.000000	79.755498
1444.000000	80.310818
1442.000000	80.440194
1440.000000	80.257029
1438.000000	79.581655
1436.000000	79.485715
1434.000000	80.229670
1432.000000	80.396135
1430.000000	80.300561
1428.000000	80.373341
1426.000000	80.396838
1424.000000	80.247745
1422.000000	79.910995
1420.000000	79.127681
1418.000000	79.134289
1416.000000	79.590676
1414.000000	79.579144
1412.000000	79.229543
1410.000000	78.709347
1408.000000	77.941734
1406.000000	77.066758
1404.000000	76.596669
1402.000000	76.633180
1400.000000	76.761695
1398.000000	77.149582
1396.000000	77.483891
1394.000000	77.825224
1392.000000	78.303254
1390.000000	78.308791
1388.000000	77.873594
1386.000000	77.650984
1384.000000	77.673699
1382.000000	77.798572
1380.000000	77.884584
1378.000000	77.813542
1376.000000	77.600980
1374.000000	77.428822
1372.000000	77.457048
1370.000000	77.399695
1368.000000	77.246516
1366.000000	77.078847
1364.000000	76.772090
1362.000000	76.558908
1360.000000	76.536586
1358.000000	76.459016
1356.000000	76.269373
1354.000000	76.064653
1352.000000	75.863678
1350.000000	75.647245
1348.000000	75.427532
1346.000000	75.203939
1344.000000	74.952500
1342.000000	74.640247
1340.000000	74.333295
1338.000000	74.206625
1336.000000	74.179561
1334.000000	74.114685
1332.000000	73.970580
1330.000000	73.777608
1328.000000	73.555034
1326.000000	73.313274
1324.000000	73.047976
1322.000000	72.757520
1320.000000	72.433781
1318.000000	72.130687
1316.000000	71.842609
1314.000000	71.532912
1312.000000	71.225857
1310.000000	70.925915
1308.000000	70.601680
1306.000000	70.271901
1304.000000	69.930941
1302.000000	69.586736
1300.000000	69.240753
1298.000000	68.894729
1296.000000	68.538601
1294.000000	68.174154
1292.000000	67.788569
1290.000000	67.390414
1288.000000	66.987520
1286.000000	66.591141
1284.000000	66.180609
1282.000000	65.749877
1280.000000	65.290894
1278.000000	64.802836
1276.000000	64.264167
1274.000000	63.648026
1272.000000	62.913582
1270.000000	62.027025
1268.000000	60.923833
1266.000000	59.605357
1264.000000	58.230861
1262.000000	57.126319
1260.000000	56.573497
1258.000000	56.582364
1256.000000	56.874495
1254.000000	57.120004
1252.000000	57.118004
1250.000000	56.876993
1248.000000	56.482499
1246.000000	56.009459
1244.000000	55.498179
1242.000000	54.981636
1240.000000	54.472494
1238.000000	53.980498
1236.000000	53.501988
1234.000000	53.038840
1232.000000	52.583046
1230.000000	52.137170
1228.000000	51.689952
1226.000000	51.238144
1224.000000	50.778857
1222.000000	50.308542
1220.000000	49.812807
1218.000000	49.299130
1216.000000	48.776703
1214.000000	48.262901
1212.000000	47.769960
1210.000000	47.315914
1208.000000	46.896179
1206.000000	46.498953
1204.000000	46.102178
1202.000000	45.702910
1200.000000	45.307051
1198.000000	44.920677
1196.000000	44.528582
1194.000000	44.122442
1192.000000	43.700708
1190.000000	43.269506
1188.000000	42.825535
1186.000000	42.354191
1184.000000	41.770445
1182.000000	41.041999
1180.000000	40.474469
1178.000000	40.226384
1176.000000	39.994345
1174.000000	39.637011
1172.000000	39.210000
1170.000000	38.761780
1168.000000	38.294823
1166.000000	37.819351
1164.000000	37.347406
1162.000000	36.886929
1160.000000	36.430992
1158.000000	35.994626
1156.000000	35.573052
1154.000000	35.155047
1152.000000	34.729366
1150.000000	34.306701
1148.000000	33.876292
1146.000000	33.438479
1144.000000	33.009319
1142.000000	32.630750
1140.000000	32.318183
1138.000000	32.005848
1136.000000	31.645630
1134.000000	31.252636
1132.000000	30.837397
1130.000000	30.410283
1128.000000	29.986963
1126.000000	29.569330
1124.000000	29.141359
1122.000000	28.703406
1120.000000	28.252174
1118.000000	27.794187
1116.000000	27.328954
1114.000000	26.861772
1112.000000	26.392316
1110.000000	25.929454
1108.000000	25.475737
1106.000000	25.038022
1104.000000	24.618191
1102.000000	24.208474
1100.000000	23.798288
1098.000000	23.392114
1096.000000	22.993710
1094.000000	22.610594
1092.000000	22.243088
1090.000000	21.890723
1088.000000	21.547124
1086.000000	21.209587
1084.000000	20.861020
1082.000000	20.503342
1080.000000	20.166035
1078.000000	19.863240
1076.000000	19.586203
1074.000000	19.352798
1072.000000	19.138110
1070.000000	18.914768
1068.000000	18.683103
1066.000000	18.451910
1064.000000	18.219265
1062.000000	17.985593
1060.000000	17.739106
1058.000000	17.452370
1056.000000	17.063445
1054.000000	16.551654
1052.000000	16.043971
1050.000000	15.744239
1048.000000	15.710597
1046.000000	15.792391
1044.000000	15.793700
1042.000000	15.677106
1040.000000	15.491498
1038.000000	15.279384
1036.000000	15.051958
1034.000000	14.813785
1032.000000	14.564807
1030.000000	14.307285
1028.000000	14.041739
1026.000000	13.772455
1024.000000	13.500518
1022.000000	13.232642
1020.000000	12.977212
1018.000000	12.743227
1016.000000	12.530253
1014.000000	12.341669
1012.000000	12.172507
1010.000000	12.012464
1008.000000	11.846198
1006.000000	11.667696
1004.000000	11.472492
1002.000000	11.260987
1000.000000	11.033185
