PE IR       SUBTECH     SPECTRUM    ASCII       PEDS        4.00        
   -1
TE110A_084_80K_AFTER_140K_BG.ASC
20/05/14
15:56:09.00
20/05/14
15:56:09.00
Administrator
TE110A.Thursday, May 14 2020, 015.
1000.000000
#HDR
-1
-1
#GR
cm-1
EGY
1.0
0.0
6000.000000
-2.000000
2501
8
105.079097
11.054698
#DATA
6000.000000	16.398282
5998.000000	16.430257
5996.000000	16.463435
5994.000000	16.496604
5992.000000	16.528600
5990.000000	16.560608
5988.000000	16.592510
5986.000000	16.625494
5984.000000	16.658039
5982.000000	16.690511
5980.000000	16.722292
5978.000000	16.754214
5976.000000	16.786984
5974.000000	16.820437
5972.000000	16.853954
5970.000000	16.887805
5968.000000	16.920794
5966.000000	16.953902
5964.000000	16.986906
5962.000000	17.019859
5960.000000	17.053074
5958.000000	17.086511
5956.000000	17.119859
5954.000000	17.153006
5952.000000	17.186148
5950.000000	17.219355
5948.000000	17.252459
5946.000000	17.286306
5944.000000	17.319093
5942.000000	17.352210
5940.000000	17.385076
5938.000000	17.417570
5936.000000	17.449878
5934.000000	17.482899
5932.000000	17.516362
5930.000000	17.551160
5928.000000	17.583411
5926.000000	17.616450
5924.000000	17.650227
5922.000000	17.685558
5920.000000	17.719987
5918.000000	17.754176
5916.000000	17.788703
5914.000000	17.824686
5912.000000	17.860351
5910.000000	17.896492
5908.000000	17.931813
5906.000000	17.966764
5904.000000	18.001980
5902.000000	18.038498
5900.000000	18.075386
5898.000000	18.111185
5896.000000	18.146655
5894.000000	18.182285
5892.000000	18.217113
5890.000000	18.252397
5888.000000	18.286945
5886.000000	18.322202
5884.000000	18.356127
5882.000000	18.390520
5880.000000	18.425360
5878.000000	18.461379
5876.000000	18.496675
5874.000000	18.532309
5872.000000	18.568503
5870.000000	18.605098
5868.000000	18.641451
5866.000000	18.677368
5864.000000	18.712640
5862.000000	18.749116
5860.000000	18.784807
5858.000000	18.821183
5856.000000	18.857770
5854.000000	18.895550
5852.000000	18.932717
5850.000000	18.970753
5848.000000	19.008952
5846.000000	19.048251
5844.000000	19.086721
5842.000000	19.125921
5840.000000	19.166486
5838.000000	19.208171
5836.000000	19.249267
5834.000000	19.289363
5832.000000	19.329060
5830.000000	19.370046
5828.000000	19.411055
5826.000000	19.451211
5824.000000	19.490181
5822.000000	19.529363
5820.000000	19.569652
5818.000000	19.611180
5816.000000	19.652039
5814.000000	19.691853
5812.000000	19.730895
5810.000000	19.770128
5808.000000	19.809608
5806.000000	19.849472
5804.000000	19.889095
5802.000000	19.928151
5800.000000	19.966636
5798.000000	20.007265
5796.000000	20.048446
5794.000000	20.089047
5792.000000	20.127535
5790.000000	20.167014
5788.000000	20.207394
5786.000000	20.248109
5784.000000	20.288528
5782.000000	20.329915
5780.000000	20.370516
5778.000000	20.411452
5776.000000	20.451768
5774.000000	20.492644
5772.000000	20.531711
5770.000000	20.572045
5768.000000	20.613923
5766.000000	20.656892
5764.000000	20.698089
5762.000000	20.739039
5760.000000	20.779206
5758.000000	20.820362
5756.000000	20.859883
5754.000000	20.900004
5752.000000	20.939837
5750.000000	20.980721
5748.000000	21.022436
5746.000000	21.063924
5744.000000	21.102930
5742.000000	21.141603
5740.000000	21.180785
5738.000000	21.221680
5736.000000	21.261785
5734.000000	21.301184
5732.000000	21.339672
5730.000000	21.378204
5728.000000	21.417915
5726.000000	21.459855
5724.000000	21.501757
5722.000000	21.543287
5720.000000	21.583526
5718.000000	21.625445
5716.000000	21.667292
5714.000000	21.709458
5712.000000	21.751128
5710.000000	21.793924
5708.000000	21.836519
5706.000000	21.879922
5704.000000	21.922760
5702.000000	21.966596
5700.000000	22.009052
5698.000000	22.051437
5696.000000	22.094942
5694.000000	22.139431
5692.000000	22.183608
5690.000000	22.228395
5688.000000	22.272618
5686.000000	22.317717
5684.000000	22.362017
5682.000000	22.407104
5680.000000	22.451113
5678.000000	22.495355
5676.000000	22.539359
5674.000000	22.585366
5672.000000	22.629749
5670.000000	22.673539
5668.000000	22.717381
5666.000000	22.762370
5664.000000	22.806499
5662.000000	22.850660
5660.000000	22.894793
5658.000000	22.940129
5656.000000	22.984713
5654.000000	23.029121
5652.000000	23.073805
5650.000000	23.118063
5648.000000	23.161779
5646.000000	23.206295
5644.000000	23.250726
5642.000000	23.295865
5640.000000	23.340215
5638.000000	23.385228
5636.000000	23.429577
5634.000000	23.473613
5632.000000	23.516754
5630.000000	23.560479
5628.000000	23.604419
5626.000000	23.649151
5624.000000	23.693649
5622.000000	23.738691
5620.000000	23.783922
5618.000000	23.829190
5616.000000	23.873106
5614.000000	23.917074
5612.000000	23.960715
5610.000000	24.005555
5608.000000	24.049845
5606.000000	24.094784
5604.000000	24.138548
5602.000000	24.183866
5600.000000	24.229184
5598.000000	24.275681
5596.000000	24.321638
5594.000000	24.367537
5592.000000	24.412614
5590.000000	24.458342
5588.000000	24.504757
5586.000000	24.551466
5584.000000	24.596594
5582.000000	24.641352
5580.000000	24.686979
5578.000000	24.733676
5576.000000	24.779991
5574.000000	24.826352
5572.000000	24.872902
5570.000000	24.919844
5568.000000	24.966248
5566.000000	25.013796
5564.000000	25.061414
5562.000000	25.109025
5560.000000	25.154867
5558.000000	25.200973
5556.000000	25.246481
5554.000000	25.292904
5552.000000	25.338759
5550.000000	25.385412
5548.000000	25.432131
5546.000000	25.479653
5544.000000	25.526741
5542.000000	25.572710
5540.000000	25.616756
5538.000000	25.662148
5536.000000	25.708997
5534.000000	25.757521
5532.000000	25.805448
5530.000000	25.852602
5528.000000	25.899196
5526.000000	25.944536
5524.000000	25.988556
5522.000000	26.033330
5520.000000	26.078310
5518.000000	26.125205
5516.000000	26.173793
5514.000000	26.223885
5512.000000	26.270627
5510.000000	26.314194
5508.000000	26.357908
5506.000000	26.405662
5504.000000	26.455156
5502.000000	26.503843
5500.000000	26.551189
5498.000000	26.596199
5496.000000	26.635504
5494.000000	26.674627
5492.000000	26.718067
5490.000000	26.769928
5488.000000	26.824803
5486.000000	26.879690
5484.000000	26.933268
5482.000000	26.984593
5480.000000	27.027551
5478.000000	27.062723
5476.000000	27.101746
5474.000000	27.153149
5472.000000	27.208801
5470.000000	27.258873
5468.000000	27.305214
5466.000000	27.351703
5464.000000	27.395328
5462.000000	27.440499
5460.000000	27.491000
5458.000000	27.546962
5456.000000	27.602687
5454.000000	27.653029
5452.000000	27.695448
5450.000000	27.731675
5448.000000	27.768540
5446.000000	27.810957
5444.000000	27.857344
5442.000000	27.912908
5440.000000	27.969201
5438.000000	28.018275
5436.000000	28.062491
5434.000000	28.107686
5432.000000	28.150604
5430.000000	28.193899
5428.000000	28.246811
5426.000000	28.313073
5424.000000	28.376896
5422.000000	28.433139
5420.000000	28.480641
5418.000000	28.514038
5416.000000	28.535771
5414.000000	28.563719
5412.000000	28.610453
5410.000000	28.676360
5408.000000	28.744285
5406.000000	28.806193
5404.000000	28.860837
5402.000000	28.912309
5400.000000	28.956981
5398.000000	28.990837
5396.000000	29.022795
5394.000000	29.070825
5392.000000	29.132723
5390.000000	29.192174
5388.000000	29.237615
5386.000000	29.283739
5384.000000	29.339219
5382.000000	29.395514
5380.000000	29.434978
5378.000000	29.469537
5376.000000	29.517109
5374.000000	29.582641
5372.000000	29.649595
5370.000000	29.707390
5368.000000	29.755810
5366.000000	29.800928
5364.000000	29.848894
5362.000000	29.903305
5360.000000	29.957801
5358.000000	29.999705
5356.000000	30.028719
5354.000000	30.065515
5352.000000	30.117545
5350.000000	30.173626
5348.000000	30.211929
5346.000000	30.247243
5344.000000	30.294941
5342.000000	30.346870
5340.000000	30.394626
5338.000000	30.447048
5336.000000	30.512192
5334.000000	30.579303
5332.000000	30.633495
5330.000000	30.678074
5328.000000	30.725114
5326.000000	30.781970
5324.000000	30.845234
5322.000000	30.902738
5320.000000	30.952162
5318.000000	30.999032
5316.000000	31.047305
5314.000000	31.098859
5312.000000	31.146826
5310.000000	31.189058
5308.000000	31.232787
5306.000000	31.286301
5304.000000	31.343375
5302.000000	31.396657
5300.000000	31.447398
5298.000000	31.500904
5296.000000	31.553422
5294.000000	31.597645
5292.000000	31.636840
5290.000000	31.682862
5288.000000	31.737586
5286.000000	31.795641
5284.000000	31.850013
5282.000000	31.904370
5280.000000	31.959323
5278.000000	32.015274
5276.000000	32.069010
5274.000000	32.119563
5272.000000	32.166277
5270.000000	32.211381
5268.000000	32.248930
5266.000000	32.282395
5264.000000	32.325154
5262.000000	32.387105
5260.000000	32.455472
5258.000000	32.510086
5256.000000	32.556023
5254.000000	32.606838
5252.000000	32.656173
5250.000000	32.697342
5248.000000	32.736931
5246.000000	32.790066
5244.000000	32.856252
5242.000000	32.925337
5240.000000	32.988533
5238.000000	33.041611
5236.000000	33.088171
5234.000000	33.133819
5232.000000	33.181076
5230.000000	33.228139
5228.000000	33.269192
5226.000000	33.314156
5224.000000	33.370548
5222.000000	33.434154
5220.000000	33.492045
5218.000000	33.546726
5216.000000	33.602109
5214.000000	33.655182
5212.000000	33.696689
5210.000000	33.726469
5208.000000	33.759577
5206.000000	33.816149
5204.000000	33.889420
5202.000000	33.958613
5200.000000	34.011923
5198.000000	34.061933
5196.000000	34.117245
5194.000000	34.176633
5192.000000	34.231800
5190.000000	34.281972
5188.000000	34.329372
5186.000000	34.379877
5184.000000	34.434729
5182.000000	34.493372
5180.000000	34.551071
5178.000000	34.607525
5176.000000	34.662367
5174.000000	34.715368
5172.000000	34.766714
5170.000000	34.820365
5168.000000	34.874184
5166.000000	34.926897
5164.000000	34.979230
5162.000000	35.034592
5160.000000	35.089078
5158.000000	35.142253
5156.000000	35.196164
5154.000000	35.252637
5152.000000	35.309110
5150.000000	35.365367
5148.000000	35.419946
5146.000000	35.472188
5144.000000	35.522208
5142.000000	35.574891
5140.000000	35.630238
5138.000000	35.686091
5136.000000	35.739729
5134.000000	35.793341
5132.000000	35.846492
5130.000000	35.899669
5128.000000	35.952297
5126.000000	36.006812
5124.000000	36.060971
5122.000000	36.114528
5120.000000	36.166162
5118.000000	36.218955
5116.000000	36.272613
5114.000000	36.327486
5112.000000	36.381470
5110.000000	36.436012
5108.000000	36.490666
5106.000000	36.546176
5104.000000	36.600931
5102.000000	36.656548
5100.000000	36.711629
5098.000000	36.766844
5096.000000	36.820961
5094.000000	36.876367
5092.000000	36.932492
5090.000000	36.989230
5088.000000	37.045319
5086.000000	37.101488
5084.000000	37.157490
5082.000000	37.213962
5080.000000	37.269900
5078.000000	37.326547
5076.000000	37.382160
5074.000000	37.438282
5072.000000	37.494175
5070.000000	37.550839
5068.000000	37.605901
5066.000000	37.661960
5064.000000	37.718063
5062.000000	37.773994
5060.000000	37.828566
5058.000000	37.884851
5056.000000	37.941321
5054.000000	37.997302
5052.000000	38.051871
5050.000000	38.107396
5048.000000	38.162929
5046.000000	38.219032
5044.000000	38.275002
5042.000000	38.331934
5040.000000	38.387819
5038.000000	38.443420
5036.000000	38.498399
5034.000000	38.553696
5032.000000	38.607691
5030.000000	38.662288
5028.000000	38.717329
5026.000000	38.773268
5024.000000	38.829948
5022.000000	38.886640
5020.000000	38.941527
5018.000000	38.996282
5016.000000	39.051715
5014.000000	39.108349
5012.000000	39.164661
5010.000000	39.220865
5008.000000	39.276225
5006.000000	39.332481
5004.000000	39.389851
5002.000000	39.448468
5000.000000	39.505821
4998.000000	39.563286
4996.000000	39.619884
4994.000000	39.677924
4992.000000	39.735909
4990.000000	39.794858
4988.000000	39.852684
4986.000000	39.910349
4984.000000	39.967349
4982.000000	40.025747
4980.000000	40.083964
4978.000000	40.141806
4976.000000	40.197972
4974.000000	40.254914
4972.000000	40.312191
4970.000000	40.370108
4968.000000	40.427409
4966.000000	40.485249
4964.000000	40.542304
4962.000000	40.599539
4960.000000	40.655558
4958.000000	40.712213
4956.000000	40.767858
4954.000000	40.824735
4952.000000	40.881683
4950.000000	40.939081
4948.000000	40.995994
4946.000000	41.053712
4944.000000	41.110566
4942.000000	41.166928
4940.000000	41.222129
4938.000000	41.278050
4936.000000	41.334226
4934.000000	41.391361
4932.000000	41.447409
4930.000000	41.503754
4928.000000	41.559622
4926.000000	41.616779
4924.000000	41.673896
4922.000000	41.730614
4920.000000	41.785986
4918.000000	41.843836
4916.000000	41.902519
4914.000000	41.960615
4912.000000	42.017151
4910.000000	42.074960
4908.000000	42.132496
4906.000000	42.190939
4904.000000	42.248764
4902.000000	42.306837
4900.000000	42.364777
4898.000000	42.424032
4896.000000	42.482722
4894.000000	42.541908
4892.000000	42.601011
4890.000000	42.660839
4888.000000	42.719798
4886.000000	42.779037
4884.000000	42.837900
4882.000000	42.897678
4880.000000	42.956255
4878.000000	43.014242
4876.000000	43.072559
4874.000000	43.131786
4872.000000	43.190287
4870.000000	43.249354
4868.000000	43.307831
4866.000000	43.366670
4864.000000	43.424338
4862.000000	43.481626
4860.000000	43.537886
4858.000000	43.596459
4856.000000	43.654461
4854.000000	43.711728
4852.000000	43.769082
4850.000000	43.827784
4848.000000	43.885011
4846.000000	43.942304
4844.000000	43.999781
4842.000000	44.057734
4840.000000	44.115076
4838.000000	44.172617
4836.000000	44.229119
4834.000000	44.286782
4832.000000	44.344184
4830.000000	44.401027
4828.000000	44.457497
4826.000000	44.515873
4824.000000	44.573852
4822.000000	44.632410
4820.000000	44.691259
4818.000000	44.750192
4816.000000	44.807807
4814.000000	44.866297
4812.000000	44.925283
4810.000000	44.985665
4808.000000	45.044981
4806.000000	45.103814
4804.000000	45.161720
4802.000000	45.221133
4800.000000	45.280866
4798.000000	45.342226
4796.000000	45.402810
4794.000000	45.463241
4792.000000	45.523099
4790.000000	45.584098
4788.000000	45.643799
4786.000000	45.703932
4784.000000	45.763229
4782.000000	45.822728
4780.000000	45.881259
4778.000000	45.941547
4776.000000	46.001962
4774.000000	46.062837
4772.000000	46.122022
4770.000000	46.180709
4768.000000	46.239702
4766.000000	46.300009
4764.000000	46.358830
4762.000000	46.416982
4760.000000	46.475364
4758.000000	46.534186
4756.000000	46.592169
4754.000000	46.650245
4752.000000	46.707925
4750.000000	46.766448
4748.000000	46.825529
4746.000000	46.884199
4744.000000	46.941135
4742.000000	46.998363
4740.000000	47.056043
4738.000000	47.115395
4736.000000	47.174456
4734.000000	47.232375
4732.000000	47.289314
4730.000000	47.348044
4728.000000	47.406212
4726.000000	47.464786
4724.000000	47.524805
4722.000000	47.586133
4720.000000	47.645543
4718.000000	47.705344
4716.000000	47.765757
4714.000000	47.827036
4712.000000	47.888060
4710.000000	47.951073
4708.000000	48.014473
4706.000000	48.077805
4704.000000	48.140149
4702.000000	48.203542
4700.000000	48.266436
4698.000000	48.329035
4696.000000	48.389960
4694.000000	48.450884
4692.000000	48.511774
4690.000000	48.573453
4688.000000	48.634363
4686.000000	48.695994
4684.000000	48.756986
4682.000000	48.818365
4680.000000	48.879340
4678.000000	48.940826
4676.000000	49.001462
4674.000000	49.063469
4672.000000	49.124686
4670.000000	49.185899
4668.000000	49.246545
4666.000000	49.308304
4664.000000	49.369237
4662.000000	49.430352
4660.000000	49.491037
4658.000000	49.552576
4656.000000	49.613222
4654.000000	49.674255
4652.000000	49.735237
4650.000000	49.796217
4648.000000	49.855944
4646.000000	49.917175
4644.000000	49.979054
4642.000000	50.041049
4640.000000	50.102324
4638.000000	50.164774
4636.000000	50.225524
4634.000000	50.285074
4632.000000	50.344389
4630.000000	50.405549
4628.000000	50.466574
4626.000000	50.528554
4624.000000	50.589505
4622.000000	50.650776
4620.000000	50.712299
4618.000000	50.775146
4616.000000	50.837896
4614.000000	50.902084
4612.000000	50.966648
4610.000000	51.031812
4608.000000	51.094871
4606.000000	51.157686
4604.000000	51.221398
4602.000000	51.287230
4600.000000	51.352677
4598.000000	51.418558
4596.000000	51.483367
4594.000000	51.548107
4592.000000	51.612615
4590.000000	51.678270
4588.000000	51.742409
4586.000000	51.806348
4584.000000	51.870314
4582.000000	51.934800
4580.000000	51.998335
4578.000000	52.062848
4576.000000	52.126510
4574.000000	52.190226
4572.000000	52.253594
4570.000000	52.317504
4568.000000	52.380132
4566.000000	52.443449
4564.000000	52.506637
4562.000000	52.570927
4560.000000	52.634254
4558.000000	52.696898
4556.000000	52.758348
4554.000000	52.821374
4552.000000	52.884290
4550.000000	52.947186
4548.000000	53.009118
4546.000000	53.071585
4544.000000	53.133580
4542.000000	53.196759
4540.000000	53.259754
4538.000000	53.323564
4536.000000	53.386129
4534.000000	53.448465
4532.000000	53.510252
4530.000000	53.573668
4528.000000	53.637188
4526.000000	53.701328
4524.000000	53.764682
4522.000000	53.828787
4520.000000	53.892248
4518.000000	53.956120
4516.000000	54.020395
4514.000000	54.085395
4512.000000	54.149240
4510.000000	54.214029
4508.000000	54.279408
4506.000000	54.345900
4504.000000	54.411675
4502.000000	54.476936
4500.000000	54.541900
4498.000000	54.608795
4496.000000	54.675147
4494.000000	54.740912
4492.000000	54.804632
4490.000000	54.869066
4488.000000	54.934615
4486.000000	55.000937
4484.000000	55.064665
4482.000000	55.128764
4480.000000	55.194074
4478.000000	55.259660
4476.000000	55.322478
4474.000000	55.385354
4472.000000	55.448911
4470.000000	55.513210
4468.000000	55.576457
4466.000000	55.639223
4464.000000	55.700659
4462.000000	55.762752
4460.000000	55.824433
4458.000000	55.886392
4456.000000	55.948337
4454.000000	56.011126
4452.000000	56.072789
4450.000000	56.134988
4448.000000	56.197603
4446.000000	56.261120
4444.000000	56.322970
4442.000000	56.384872
4440.000000	56.446993
4438.000000	56.510700
4436.000000	56.573622
4434.000000	56.636531
4432.000000	56.698818
4430.000000	56.762549
4428.000000	56.826354
4426.000000	56.890617
4424.000000	56.953615
4422.000000	57.016639
4420.000000	57.079418
4418.000000	57.143789
4416.000000	57.208022
4414.000000	57.272053
4412.000000	57.335161
4410.000000	57.399600
4408.000000	57.464510
4406.000000	57.530024
4404.000000	57.594539
4402.000000	57.659216
4400.000000	57.723753
4398.000000	57.789034
4396.000000	57.852522
4394.000000	57.915525
4392.000000	57.978750
4390.000000	58.042034
4388.000000	58.103175
4386.000000	58.164790
4384.000000	58.226342
4382.000000	58.287736
4380.000000	58.348132
4378.000000	58.409479
4376.000000	58.470571
4374.000000	58.531904
4372.000000	58.592244
4370.000000	58.652548
4368.000000	58.711739
4366.000000	58.771667
4364.000000	58.832022
4362.000000	58.893325
4360.000000	58.954258
4358.000000	59.016529
4356.000000	59.078473
4354.000000	59.141094
4352.000000	59.204067
4350.000000	59.268317
4348.000000	59.331873
4346.000000	59.395262
4344.000000	59.457572
4342.000000	59.520706
4340.000000	59.583767
4338.000000	59.647805
4336.000000	59.711223
4334.000000	59.774815
4332.000000	59.838323
4330.000000	59.903336
4328.000000	59.967956
4326.000000	60.033134
4324.000000	60.098469
4322.000000	60.165147
4320.000000	60.231697
4318.000000	60.299515
4316.000000	60.367958
4314.000000	60.436946
4312.000000	60.503810
4310.000000	60.570298
4308.000000	60.637137
4306.000000	60.705261
4304.000000	60.772101
4302.000000	60.838959
4300.000000	60.905103
4298.000000	60.970777
4296.000000	61.035322
4294.000000	61.100347
4292.000000	61.164144
4290.000000	61.227846
4288.000000	61.290322
4286.000000	61.352401
4284.000000	61.413789
4282.000000	61.475267
4280.000000	61.535042
4278.000000	61.594236
4276.000000	61.652778
4274.000000	61.712475
4272.000000	61.772183
4270.000000	61.832132
4268.000000	61.890838
4266.000000	61.950095
4264.000000	62.011108
4262.000000	62.074730
4260.000000	62.137617
4258.000000	62.200417
4256.000000	62.262990
4254.000000	62.326127
4252.000000	62.388987
4250.000000	62.453643
4248.000000	62.518187
4246.000000	62.582697
4244.000000	62.647196
4242.000000	62.712394
4240.000000	62.775771
4238.000000	62.839649
4236.000000	62.904056
4234.000000	62.969770
4232.000000	63.034655
4230.000000	63.099073
4228.000000	63.163191
4226.000000	63.227685
4224.000000	63.290702
4222.000000	63.355333
4220.000000	63.420121
4218.000000	63.485091
4216.000000	63.549273
4214.000000	63.613821
4212.000000	63.679332
4210.000000	63.746568
4208.000000	63.812073
4206.000000	63.877624
4204.000000	63.944339
4202.000000	64.013193
4200.000000	64.081522
4198.000000	64.149408
4196.000000	64.216314
4194.000000	64.285105
4192.000000	64.354846
4190.000000	64.423814
4188.000000	64.490845
4186.000000	64.558645
4184.000000	64.625623
4182.000000	64.691575
4180.000000	64.756683
4178.000000	64.823361
4176.000000	64.889448
4174.000000	64.954263
4172.000000	65.018226
4170.000000	65.083312
4168.000000	65.147876
4166.000000	65.212552
4164.000000	65.276889
4162.000000	65.341949
4160.000000	65.405745
4158.000000	65.469068
4156.000000	65.532653
4154.000000	65.596612
4152.000000	65.660490
4150.000000	65.727112
4148.000000	65.793662
4146.000000	65.858985
4144.000000	65.923318
4142.000000	65.987286
4140.000000	66.050547
4138.000000	66.116166
4136.000000	66.182006
4134.000000	66.247313
4132.000000	66.313079
4130.000000	66.380594
4128.000000	66.447197
4126.000000	66.512987
4124.000000	66.577613
4122.000000	66.643731
4120.000000	66.711116
4118.000000	66.778977
4116.000000	66.845724
4114.000000	66.911925
4112.000000	66.976343
4110.000000	67.040505
4108.000000	67.102745
4106.000000	67.165590
4104.000000	67.230594
4102.000000	67.296414
4100.000000	67.360441
4098.000000	67.424008
4096.000000	67.487264
4094.000000	67.552920
4092.000000	67.620146
4090.000000	67.687624
4088.000000	67.755346
4086.000000	67.826580
4084.000000	67.897881
4082.000000	67.965474
4080.000000	68.029932
4078.000000	68.096939
4076.000000	68.164925
4074.000000	68.232209
4072.000000	68.298256
4070.000000	68.363162
4068.000000	68.427178
4066.000000	68.493132
4064.000000	68.557153
4062.000000	68.619425
4060.000000	68.683008
4058.000000	68.748883
4056.000000	68.814847
4054.000000	68.882362
4052.000000	68.948682
4050.000000	69.012923
4048.000000	69.072798
4046.000000	69.130553
4044.000000	69.194117
4042.000000	69.266004
4040.000000	69.336316
4038.000000	69.403535
4036.000000	69.470663
4034.000000	69.537952
4032.000000	69.604033
4030.000000	69.670974
4028.000000	69.735633
4026.000000	69.800631
4024.000000	69.869180
4022.000000	69.938796
4020.000000	70.006279
4018.000000	70.075184
4016.000000	70.145333
4014.000000	70.214955
4012.000000	70.281183
4010.000000	70.346076
4008.000000	70.414259
4006.000000	70.487212
4004.000000	70.558720
4002.000000	70.628212
4000.000000	70.694661
3998.000000	70.757334
3996.000000	70.818276
3994.000000	70.881792
3992.000000	70.946290
3990.000000	71.012947
3988.000000	71.081144
3986.000000	71.146257
3984.000000	71.206632
3982.000000	71.269382
3980.000000	71.332871
3978.000000	71.390486
3976.000000	71.443840
3974.000000	71.503314
3972.000000	71.568563
3970.000000	71.635466
3968.000000	71.703120
3966.000000	71.765822
3964.000000	71.814887
3962.000000	71.865859
3960.000000	71.930701
3958.000000	71.998718
3956.000000	72.061331
3954.000000	72.113843
3952.000000	72.142830
3950.000000	72.166544
3948.000000	72.224126
3946.000000	72.292617
3944.000000	72.337958
3942.000000	72.413064
3940.000000	72.527487
3938.000000	72.620685
3936.000000	72.651684
3934.000000	72.633702
3932.000000	72.658653
3930.000000	72.769350
3928.000000	72.868329
3926.000000	72.912022
3924.000000	72.964361
3922.000000	73.015052
3920.000000	73.011588
3918.000000	73.033287
3916.000000	73.177692
3914.000000	73.372014
3912.000000	73.501574
3910.000000	73.551405
3908.000000	73.468052
3906.000000	73.224765
3904.000000	73.017000
3902.000000	73.025152
3900.000000	73.242847
3898.000000	73.587850
3896.000000	73.839070
3894.000000	73.806075
3892.000000	73.707327
3890.000000	73.778743
3888.000000	73.766917
3886.000000	73.691799
3884.000000	73.830984
3882.000000	73.993186
3880.000000	74.131080
3878.000000	74.313272
3876.000000	74.352362
3874.000000	74.221654
3872.000000	73.971741
3870.000000	73.880669
3868.000000	74.097649
3866.000000	74.274886
3864.000000	74.397005
3862.000000	74.638303
3860.000000	74.838210
3858.000000	74.562853
3856.000000	73.581405
3854.000000	72.893272
3852.000000	73.495168
3850.000000	74.640069
3848.000000	75.274080
3846.000000	75.358400
3844.000000	75.244107
3842.000000	75.030214
3840.000000	74.630583
3838.000000	74.434549
3836.000000	74.783710
3834.000000	75.250876
3832.000000	75.534894
3830.000000	75.745836
3828.000000	75.877082
3826.000000	75.892262
3824.000000	75.668238
3822.000000	75.386596
3820.000000	75.390659
3818.000000	75.373242
3816.000000	75.439948
3814.000000	75.974697
3812.000000	76.447593
3810.000000	76.374547
3808.000000	76.075664
3806.000000	76.041277
3804.000000	75.952656
3802.000000	75.756181
3800.000000	76.041722
3798.000000	76.525438
3796.000000	76.817912
3794.000000	77.050505
3792.000000	77.213617
3790.000000	77.288016
3788.000000	77.314457
3786.000000	77.327220
3784.000000	77.356307
3782.000000	77.343466
3780.000000	77.325770
3778.000000	77.451898
3776.000000	77.633964
3774.000000	77.675291
3772.000000	77.535374
3770.000000	77.437026
3768.000000	77.521822
3766.000000	77.674053
3764.000000	77.813740
3762.000000	77.826100
3760.000000	77.757311
3758.000000	77.797742
3756.000000	77.705110
3754.000000	77.124839
3752.000000	76.485464
3750.000000	76.495042
3748.000000	76.745957
3746.000000	76.528973
3744.000000	76.686875
3742.000000	77.602491
3740.000000	78.092622
3738.000000	77.843040
3736.000000	77.593189
3734.000000	77.704176
3732.000000	78.081277
3730.000000	78.520116
3728.000000	78.710631
3726.000000	78.732623
3724.000000	78.804372
3722.000000	78.928898
3720.000000	79.089108
3718.000000	79.228346
3716.000000	79.165818
3714.000000	78.799216
3712.000000	78.551653
3710.000000	78.799807
3708.000000	79.265961
3706.000000	79.547858
3704.000000	79.549699
3702.000000	79.520259
3700.000000	79.668188
3698.000000	79.843824
3696.000000	79.897203
3694.000000	79.762452
3692.000000	79.346291
3690.000000	78.875198
3688.000000	78.990990
3686.000000	79.657673
3684.000000	80.119703
3682.000000	80.173378
3680.000000	79.936408
3678.000000	79.350737
3676.000000	78.918138
3674.000000	79.078454
3672.000000	79.204167
3670.000000	79.333652
3668.000000	79.893903
3666.000000	80.421963
3664.000000	80.621853
3662.000000	80.655442
3660.000000	80.555291
3658.000000	80.295785
3656.000000	80.194641
3654.000000	80.213966
3652.000000	79.829999
3650.000000	79.377607
3648.000000	79.581494
3646.000000	80.224561
3644.000000	80.683173
3642.000000	80.840940
3640.000000	80.882171
3638.000000	80.886874
3636.000000	80.845127
3634.000000	80.722419
3632.000000	80.310712
3630.000000	79.779948
3628.000000	79.906088
3626.000000	80.538919
3624.000000	80.854824
3622.000000	80.686285
3620.000000	80.431566
3618.000000	80.473113
3616.000000	80.623013
3614.000000	80.608503
3612.000000	80.510769
3610.000000	80.443155
3608.000000	80.560119
3606.000000	80.827699
3604.000000	80.976950
3602.000000	80.966784
3600.000000	80.933479
3598.000000	80.902882
3596.000000	80.860513
3594.000000	80.872043
3592.000000	80.857689
3590.000000	80.660847
3588.000000	80.498369
3586.000000	80.636397
3584.000000	80.880157
3582.000000	80.991678
3580.000000	81.003898
3578.000000	81.000684
3576.000000	81.000416
3574.000000	81.000368
3572.000000	80.939758
3570.000000	80.728911
3568.000000	80.517630
3566.000000	80.565602
3564.000000	80.764824
3562.000000	80.882252
3560.000000	80.919834
3558.000000	80.941518
3556.000000	80.930605
3554.000000	80.881879
3552.000000	80.855718
3550.000000	80.841963
3548.000000	80.773437
3546.000000	80.721084
3544.000000	80.763839
3542.000000	80.835332
3540.000000	80.855264
3538.000000	80.825413
3536.000000	80.800053
3534.000000	80.793911
3532.000000	80.759755
3530.000000	80.689787
3528.000000	80.624068
3526.000000	80.577964
3524.000000	80.546065
3522.000000	80.541309
3520.000000	80.542599
3518.000000	80.525036
3516.000000	80.495499
3514.000000	80.452053
3512.000000	80.389272
3510.000000	80.329749
3508.000000	80.292447
3506.000000	80.234166
3504.000000	80.148728
3502.000000	80.102055
3500.000000	80.086311
3498.000000	80.046194
3496.000000	79.991752
3494.000000	79.947265
3492.000000	79.899627
3490.000000	79.838660
3488.000000	79.780870
3486.000000	79.738019
3484.000000	79.693220
3482.000000	79.653103
3480.000000	79.642289
3478.000000	79.647449
3476.000000	79.647998
3474.000000	79.651550
3472.000000	79.661648
3470.000000	79.667752
3468.000000	79.676960
3466.000000	79.706284
3464.000000	79.745368
3462.000000	79.783491
3460.000000	79.825082
3458.000000	79.865608
3456.000000	79.901647
3454.000000	79.932504
3452.000000	79.952977
3450.000000	79.952091
3448.000000	79.944065
3446.000000	79.971334
3444.000000	80.026407
3442.000000	80.089249
3440.000000	80.165372
3438.000000	80.250788
3436.000000	80.348554
3434.000000	80.469498
3432.000000	80.609788
3430.000000	80.753641
3428.000000	80.896264
3426.000000	81.033256
3424.000000	81.152217
3422.000000	81.254887
3420.000000	81.363714
3418.000000	81.480589
3416.000000	81.582961
3414.000000	81.664764
3412.000000	81.736943
3410.000000	81.804795
3408.000000	81.867413
3406.000000	81.922957
3404.000000	81.970345
3402.000000	82.013410
3400.000000	82.068593
3398.000000	82.146819
3396.000000	82.230274
3394.000000	82.296760
3392.000000	82.360764
3390.000000	82.443605
3388.000000	82.524367
3386.000000	82.586802
3384.000000	82.645941
3382.000000	82.706035
3380.000000	82.761967
3378.000000	82.814035
3376.000000	82.864983
3374.000000	82.912859
3372.000000	82.948802
3370.000000	82.974873
3368.000000	83.012568
3366.000000	83.065789
3364.000000	83.121134
3362.000000	83.171146
3360.000000	83.216947
3358.000000	83.261057
3356.000000	83.305250
3354.000000	83.349640
3352.000000	83.387745
3350.000000	83.426280
3348.000000	83.473870
3346.000000	83.519714
3344.000000	83.560689
3342.000000	83.600027
3340.000000	83.635181
3338.000000	83.669615
3336.000000	83.713695
3334.000000	83.763131
3332.000000	83.807643
3330.000000	83.844329
3328.000000	83.876873
3326.000000	83.909841
3324.000000	83.949282
3322.000000	83.992342
3320.000000	84.032487
3318.000000	84.069445
3316.000000	84.104067
3314.000000	84.135727
3312.000000	84.165350
3310.000000	84.190221
3308.000000	84.212355
3306.000000	84.240548
3304.000000	84.286379
3302.000000	84.341542
3300.000000	84.386816
3298.000000	84.421409
3296.000000	84.452798
3294.000000	84.482126
3292.000000	84.514378
3290.000000	84.558683
3288.000000	84.607784
3286.000000	84.649180
3284.000000	84.685954
3282.000000	84.725117
3280.000000	84.764160
3278.000000	84.797135
3276.000000	84.828715
3274.000000	84.864184
3272.000000	84.902068
3270.000000	84.947058
3268.000000	84.999737
3266.000000	85.047614
3264.000000	85.091550
3262.000000	85.135360
3260.000000	85.178976
3258.000000	85.220507
3256.000000	85.261301
3254.000000	85.309955
3252.000000	85.365961
3250.000000	85.415910
3248.000000	85.456825
3246.000000	85.497999
3244.000000	85.551344
3242.000000	85.608774
3240.000000	85.661360
3238.000000	85.710957
3236.000000	85.756246
3234.000000	85.796879
3232.000000	85.846957
3230.000000	85.905910
3228.000000	85.961714
3226.000000	86.014652
3224.000000	86.065089
3222.000000	86.110023
3220.000000	86.155125
3218.000000	86.205064
3216.000000	86.254441
3214.000000	86.302978
3212.000000	86.355253
3210.000000	86.409815
3208.000000	86.469901
3206.000000	86.534593
3204.000000	86.602163
3202.000000	86.671700
3200.000000	86.739756
3198.000000	86.808393
3196.000000	86.884796
3194.000000	86.963417
3192.000000	87.038887
3190.000000	87.110568
3188.000000	87.180484
3186.000000	87.249980
3184.000000	87.322844
3182.000000	87.394873
3180.000000	87.461226
3178.000000	87.530186
3176.000000	87.606855
3174.000000	87.682718
3172.000000	87.756681
3170.000000	87.829284
3168.000000	87.903205
3166.000000	87.979305
3164.000000	88.057031
3162.000000	88.135052
3160.000000	88.213936
3158.000000	88.292567
3156.000000	88.369300
3154.000000	88.439511
3152.000000	88.512222
3150.000000	88.597427
3148.000000	88.683816
3146.000000	88.763305
3144.000000	88.838340
3142.000000	88.908691
3140.000000	88.977616
3138.000000	89.049734
3136.000000	89.121628
3134.000000	89.187068
3132.000000	89.254981
3130.000000	89.324781
3128.000000	89.392239
3126.000000	89.455085
3124.000000	89.510726
3122.000000	89.559493
3120.000000	89.606861
3118.000000	89.656164
3116.000000	89.713371
3114.000000	89.779617
3112.000000	89.843418
3110.000000	89.895371
3108.000000	89.947985
3106.000000	90.008918
3104.000000	90.069619
3102.000000	90.126056
3100.000000	90.188954
3098.000000	90.257173
3096.000000	90.324379
3094.000000	90.390936
3092.000000	90.455403
3090.000000	90.516005
3088.000000	90.575345
3086.000000	90.627939
3084.000000	90.674990
3082.000000	90.716385
3080.000000	90.752765
3078.000000	90.792934
3076.000000	90.839126
3074.000000	90.874829
3072.000000	90.895623
3070.000000	90.904731
3068.000000	90.908805
3066.000000	90.924047
3064.000000	90.962012
3062.000000	91.014026
3060.000000	91.069912
3058.000000	91.125725
3056.000000	91.187605
3054.000000	91.253690
3052.000000	91.311794
3050.000000	91.360877
3048.000000	91.410548
3046.000000	91.453647
3044.000000	91.485005
3042.000000	91.509731
3040.000000	91.537098
3038.000000	91.560045
3036.000000	91.569555
3034.000000	91.566060
3032.000000	91.553711
3030.000000	91.525370
3028.000000	91.463289
3026.000000	91.357636
3024.000000	91.230196
3022.000000	91.114521
3020.000000	91.051547
3018.000000	91.079282
3016.000000	91.216475
3014.000000	91.447783
3012.000000	91.732701
3010.000000	92.015772
3008.000000	92.248293
3006.000000	92.411474
3004.000000	92.524699
3002.000000	92.606466
3000.000000	92.664373
2998.000000	92.705578
2996.000000	92.737509
2994.000000	92.758717
2992.000000	92.770237
2990.000000	92.772338
2988.000000	92.758780
2986.000000	92.725107
2984.000000	92.668650
2982.000000	92.582087
2980.000000	92.460699
2978.000000	92.296032
2976.000000	92.071685
2974.000000	91.767381
2972.000000	91.374508
2970.000000	90.895179
2968.000000	90.372497
2966.000000	89.888377
2964.000000	89.532057
2962.000000	89.359819
2960.000000	89.375036
2958.000000	89.519983
2956.000000	89.714805
2954.000000	89.899355
2952.000000	90.044967
2950.000000	90.118201
2948.000000	90.084273
2946.000000	89.922297
2944.000000	89.631632
2942.000000	89.222366
2940.000000	88.730985
2938.000000	88.220276
2936.000000	87.751135
2934.000000	87.333804
2932.000000	86.936808
2930.000000	86.547169
2928.000000	86.219901
2926.000000	86.056860
2924.000000	86.164976
2922.000000	86.584343
2920.000000	87.259281
2918.000000	88.073684
2916.000000	88.921567
2914.000000	89.720669
2912.000000	90.413979
2910.000000	90.970006
2908.000000	91.402132
2906.000000	91.751625
2904.000000	92.054522
2902.000000	92.328294
2900.000000	92.584738
2898.000000	92.825401
2896.000000	93.051601
2894.000000	93.266643
2892.000000	93.471008
2890.000000	93.657730
2888.000000	93.821808
2886.000000	93.950727
2884.000000	94.038933
2882.000000	94.083824
2880.000000	94.083021
2878.000000	94.030354
2876.000000	93.919399
2874.000000	93.741630
2872.000000	93.489694
2870.000000	93.132830
2868.000000	92.649155
2866.000000	92.076623
2864.000000	91.536288
2862.000000	91.183121
2860.000000	91.107821
2858.000000	91.276110
2856.000000	91.580900
2854.000000	91.938857
2852.000000	92.350116
2850.000000	92.854971
2848.000000	93.458223
2846.000000	94.078388
2844.000000	94.621061
2842.000000	95.053069
2840.000000	95.392194
2838.000000	95.663079
2836.000000	95.886038
2834.000000	96.069420
2832.000000	96.225140
2830.000000	96.361821
2828.000000	96.483814
2826.000000	96.593479
2824.000000	96.695961
2822.000000	96.791134
2820.000000	96.878675
2818.000000	96.956534
2816.000000	97.028042
2814.000000	97.091898
2812.000000	97.149704
2810.000000	97.203089
2808.000000	97.255129
2806.000000	97.304015
2804.000000	97.351448
2802.000000	97.395365
2800.000000	97.437699
2798.000000	97.478069
2796.000000	97.519878
2794.000000	97.562751
2792.000000	97.610023
2790.000000	97.665934
2788.000000	97.736862
2786.000000	97.820707
2784.000000	97.908372
2782.000000	97.989435
2780.000000	98.062991
2778.000000	98.128879
2776.000000	98.190589
2774.000000	98.249091
2772.000000	98.306153
2770.000000	98.359044
2768.000000	98.411138
2766.000000	98.460860
2764.000000	98.509242
2762.000000	98.554757
2760.000000	98.599993
2758.000000	98.644266
2756.000000	98.688778
2754.000000	98.731118
2752.000000	98.772928
2750.000000	98.810922
2748.000000	98.848008
2746.000000	98.884953
2744.000000	98.921501
2742.000000	98.955188
2740.000000	98.989842
2738.000000	99.024917
2736.000000	99.060951
2734.000000	99.094424
2732.000000	99.129549
2730.000000	99.163505
2728.000000	99.196527
2726.000000	99.228194
2724.000000	99.261025
2722.000000	99.291615
2720.000000	99.322862
2718.000000	99.354907
2716.000000	99.386758
2714.000000	99.414722
2712.000000	99.440339
2710.000000	99.463602
2708.000000	99.488403
2706.000000	99.514247
2704.000000	99.545105
2702.000000	99.581278
2700.000000	99.625285
2698.000000	99.671311
2696.000000	99.718046
2694.000000	99.763322
2692.000000	99.808343
2690.000000	99.850549
2688.000000	99.892278
2686.000000	99.932046
2684.000000	99.971587
2682.000000	100.008627
2680.000000	100.044598
2678.000000	100.078513
2676.000000	100.112194
2674.000000	100.143531
2672.000000	100.174787
2670.000000	100.204068
2668.000000	100.234170
2666.000000	100.263094
2664.000000	100.292425
2662.000000	100.320508
2660.000000	100.352150
2658.000000	100.383219
2656.000000	100.415124
2654.000000	100.450474
2652.000000	100.491007
2650.000000	100.531462
2648.000000	100.572359
2646.000000	100.610772
2644.000000	100.647992
2642.000000	100.683878
2640.000000	100.720755
2638.000000	100.755720
2636.000000	100.790480
2634.000000	100.822521
2632.000000	100.854070
2630.000000	100.882794
2628.000000	100.912867
2626.000000	100.940881
2624.000000	100.969764
2622.000000	100.996584
2620.000000	101.023741
2618.000000	101.050467
2616.000000	101.077639
2614.000000	101.103811
2612.000000	101.128817
2610.000000	101.149528
2608.000000	101.170807
2606.000000	101.188138
2604.000000	101.203953
2602.000000	101.215780
2600.000000	101.227477
2598.000000	101.236199
2596.000000	101.246151
2594.000000	101.260180
2592.000000	101.282701
2590.000000	101.312725
2588.000000	101.355874
2586.000000	101.407833
2584.000000	101.466921
2582.000000	101.527517
2580.000000	101.589681
2578.000000	101.647671
2576.000000	101.701828
2574.000000	101.749858
2572.000000	101.793684
2570.000000	101.833165
2568.000000	101.870846
2566.000000	101.903983
2564.000000	101.935918
2562.000000	101.965480
2560.000000	101.996572
2558.000000	102.024799
2556.000000	102.052905
2554.000000	102.079242
2552.000000	102.105060
2550.000000	102.129151
2548.000000	102.155374
2546.000000	102.181028
2544.000000	102.207386
2542.000000	102.231975
2540.000000	102.258895
2538.000000	102.285661
2536.000000	102.313228
2534.000000	102.340504
2532.000000	102.367077
2530.000000	102.390345
2528.000000	102.416105
2526.000000	102.440272
2524.000000	102.465002
2522.000000	102.488408
2520.000000	102.512997
2518.000000	102.535881
2516.000000	102.560176
2514.000000	102.583806
2512.000000	102.608041
2510.000000	102.628831
2508.000000	102.649564
2506.000000	102.668690
2504.000000	102.688619
2502.000000	102.709272
2500.000000	102.733374
2498.000000	102.757226
2496.000000	102.784368
2494.000000	102.809480
2492.000000	102.834836
2490.000000	102.860005
2488.000000	102.887038
2486.000000	102.913693
2484.000000	102.941599
2482.000000	102.965982
2480.000000	102.990985
2478.000000	103.014041
2476.000000	103.036569
2474.000000	103.056181
2472.000000	103.076207
2470.000000	103.094032
2468.000000	103.112741
2466.000000	103.129370
2464.000000	103.146528
2462.000000	103.161490
2460.000000	103.177406
2458.000000	103.192470
2456.000000	103.210700
2454.000000	103.227689
2452.000000	103.245126
2450.000000	103.261020
2448.000000	103.278441
2446.000000	103.294224
2444.000000	103.309861
2442.000000	103.323423
2440.000000	103.339448
2438.000000	103.354338
2436.000000	103.368623
2434.000000	103.380633
2432.000000	103.395126
2430.000000	103.406310
2428.000000	103.416184
2426.000000	103.427797
2424.000000	103.445700
2422.000000	103.462002
2420.000000	103.476680
2418.000000	103.487475
2416.000000	103.499762
2414.000000	103.510672
2412.000000	103.523366
2410.000000	103.534636
2408.000000	103.547075
2406.000000	103.557875
2404.000000	103.573521
2402.000000	103.588393
2400.000000	103.603777
2398.000000	103.619125
2396.000000	103.636960
2394.000000	103.652783
2392.000000	103.671035
2390.000000	103.686980
2388.000000	103.701707
2386.000000	103.706821
2384.000000	103.696379
2382.000000	103.660531
2380.000000	103.593863
2378.000000	103.482749
2376.000000	103.325151
2374.000000	103.122534
2372.000000	102.886786
2370.000000	102.634749
2368.000000	102.396835
2366.000000	102.195800
2364.000000	102.062053
2362.000000	102.016428
2360.000000	102.071820
2358.000000	102.225924
2356.000000	102.475234
2354.000000	102.796969
2352.000000	103.154577
2350.000000	103.415335
2348.000000	103.403625
2346.000000	103.170589
2344.000000	102.921867
2342.000000	102.740798
2340.000000	102.637894
2338.000000	102.593588
2336.000000	102.592634
2334.000000	102.624095
2332.000000	102.686120
2330.000000	102.772255
2328.000000	102.881678
2326.000000	103.001133
2324.000000	103.125319
2322.000000	103.247443
2320.000000	103.365113
2318.000000	103.471175
2316.000000	103.568007
2314.000000	103.651574
2312.000000	103.725679
2310.000000	103.786075
2308.000000	103.836724
2306.000000	103.878344
2304.000000	103.914474
2302.000000	103.942368
2300.000000	103.968331
2298.000000	103.989062
2296.000000	104.007285
2294.000000	104.021472
2292.000000	104.036732
2290.000000	104.048332
2288.000000	104.060528
2286.000000	104.069106
2284.000000	104.076079
2282.000000	104.075525
2280.000000	104.074706
2278.000000	104.069829
2276.000000	104.064915
2274.000000	104.058585
2272.000000	104.053797
2270.000000	104.047330
2268.000000	104.043287
2266.000000	104.037533
2264.000000	104.034446
2262.000000	104.030276
2260.000000	104.027798
2258.000000	104.024914
2256.000000	104.028032
2254.000000	104.029630
2252.000000	104.033194
2250.000000	104.037290
2248.000000	104.045584
2246.000000	104.052877
2244.000000	104.064991
2242.000000	104.075762
2240.000000	104.089855
2238.000000	104.102015
2236.000000	104.116104
2234.000000	104.128619
2232.000000	104.142937
2230.000000	104.154789
2228.000000	104.167917
2226.000000	104.178530
2224.000000	104.190219
2222.000000	104.199001
2220.000000	104.208621
2218.000000	104.214201
2216.000000	104.222158
2214.000000	104.226836
2212.000000	104.231619
2210.000000	104.234263
2208.000000	104.239087
2206.000000	104.242406
2204.000000	104.249771
2202.000000	104.253947
2200.000000	104.258088
2198.000000	104.259631
2196.000000	104.263605
2194.000000	104.265171
2192.000000	104.269088
2190.000000	104.268918
2188.000000	104.269721
2186.000000	104.267759
2184.000000	104.268578
2182.000000	104.266248
2180.000000	104.266328
2178.000000	104.263419
2176.000000	104.260557
2174.000000	104.250094
2172.000000	104.228415
2170.000000	104.202942
2168.000000	104.213770
2166.000000	104.236161
2164.000000	104.246490
2162.000000	104.246083
2160.000000	104.244505
2158.000000	104.241649
2156.000000	104.242934
2154.000000	104.239383
2152.000000	104.237026
2150.000000	104.234344
2148.000000	104.236201
2146.000000	104.234580
2144.000000	104.234606
2142.000000	104.231041
2140.000000	104.230907
2138.000000	104.226954
2136.000000	104.224808
2134.000000	104.224196
2132.000000	104.225785
2130.000000	104.223885
2128.000000	104.222613
2126.000000	104.219851
2124.000000	104.221614
2122.000000	104.222255
2120.000000	104.225110
2118.000000	104.226057
2116.000000	104.229229
2114.000000	104.234680
2112.000000	104.245867
2110.000000	104.257401
2108.000000	104.271296
2106.000000	104.282747
2104.000000	104.296123
2102.000000	104.305945
2100.000000	104.317335
2098.000000	104.327990
2096.000000	104.343513
2094.000000	104.353676
2092.000000	104.363670
2090.000000	104.372848
2088.000000	104.392393
2086.000000	104.409082
2084.000000	104.428815
2082.000000	104.442745
2080.000000	104.458907
2078.000000	104.471774
2076.000000	104.488752
2074.000000	104.502324
2072.000000	104.523101
2070.000000	104.541975
2068.000000	104.555745
2066.000000	104.558391
2064.000000	104.581672
2062.000000	104.614563
2060.000000	104.642945
2058.000000	104.664838
2056.000000	104.687555
2054.000000	104.706067
2052.000000	104.727259
2050.000000	104.745406
2048.000000	104.766590
2046.000000	104.782284
2044.000000	104.796680
2042.000000	104.805012
2040.000000	104.828433
2038.000000	104.850958
2036.000000	104.866422
2034.000000	104.873586
2032.000000	104.875338
2030.000000	104.857581
2028.000000	104.866339
2026.000000	104.900508
2024.000000	104.924571
2022.000000	104.932285
2020.000000	104.925786
2018.000000	104.909473
2016.000000	104.936432
2014.000000	104.984350
2012.000000	105.013519
2010.000000	105.025538
2008.000000	105.039759
2006.000000	105.053628
2004.000000	105.067554
2002.000000	105.071924
2000.000000	105.075657
1998.000000	105.079097
1996.000000	105.078924
1994.000000	105.026133
1992.000000	104.981587
1990.000000	105.017883
1988.000000	105.056483
1986.000000	105.070146
1984.000000	105.073675
1982.000000	105.062945
1980.000000	105.051974
1978.000000	105.037621
1976.000000	105.024692
1974.000000	105.007596
1972.000000	104.989410
1970.000000	104.944827
1968.000000	104.876992
1966.000000	104.860027
1964.000000	104.876788
1962.000000	104.825092
1960.000000	104.707523
1958.000000	104.677281
1956.000000	104.755356
1954.000000	104.781886
1952.000000	104.767103
1950.000000	104.734730
1948.000000	104.706493
1946.000000	104.647657
1944.000000	104.532324
1942.000000	104.487906
1940.000000	104.582275
1938.000000	104.614677
1936.000000	104.594888
1934.000000	104.563140
1932.000000	104.540413
1930.000000	104.512561
1928.000000	104.485989
1926.000000	104.418755
1924.000000	104.305048
1922.000000	104.242010
1920.000000	104.128880
1918.000000	103.982032
1916.000000	104.107767
1914.000000	104.198263
1912.000000	104.136602
1910.000000	104.034659
1908.000000	103.998729
1906.000000	103.978799
1904.000000	103.944910
1902.000000	103.893783
1900.000000	103.851632
1898.000000	103.779952
1896.000000	103.700039
1894.000000	103.666085
1892.000000	103.606485
1890.000000	103.475244
1888.000000	103.526683
1886.000000	103.605902
1884.000000	103.609937
1882.000000	103.594212
1880.000000	103.578016
1878.000000	103.550108
1876.000000	103.532988
1874.000000	103.490510
1872.000000	103.317229
1870.000000	102.967288
1868.000000	102.933662
1866.000000	103.187858
1864.000000	103.322112
1862.000000	103.308898
1860.000000	103.277611
1858.000000	103.244366
1856.000000	103.224485
1854.000000	103.187769
1852.000000	103.150761
1850.000000	103.063074
1848.000000	102.887636
1846.000000	102.396293
1844.000000	102.097455
1842.000000	102.526807
1840.000000	102.820774
1838.000000	102.769538
1836.000000	102.718790
1834.000000	102.645048
1832.000000	102.346197
1830.000000	102.042946
1828.000000	102.116661
1826.000000	102.082538
1824.000000	102.107757
1822.000000	102.254805
1820.000000	102.245426
1818.000000	102.153709
1816.000000	102.096080
1814.000000	101.997810
1812.000000	101.810153
1810.000000	101.698280
1808.000000	101.704875
1806.000000	101.648798
1804.000000	101.457426
1802.000000	101.150909
1800.000000	101.010768
1798.000000	101.041949
1796.000000	100.907145
1794.000000	100.311110
1792.000000	99.988163
1790.000000	100.377760
1788.000000	100.595660
1786.000000	100.370765
1784.000000	100.223555
1782.000000	100.138693
1780.000000	100.041146
1778.000000	100.002911
1776.000000	99.693364
1774.000000	98.840490
1772.000000	98.418947
1770.000000	98.831295
1768.000000	99.072849
1766.000000	99.319179
1764.000000	99.162992
1762.000000	98.770029
1760.000000	98.825403
1758.000000	98.756573
1756.000000	98.626642
1754.000000	98.411361
1752.000000	97.666806
1750.000000	97.433231
1748.000000	97.687320
1746.000000	97.785055
1744.000000	97.646289
1742.000000	97.286533
1740.000000	96.935370
1738.000000	96.913292
1736.000000	95.975911
1734.000000	95.016225
1732.000000	95.943800
1730.000000	96.829128
1728.000000	97.057824
1726.000000	97.064034
1724.000000	96.962476
1722.000000	96.779623
1720.000000	95.875082
1718.000000	94.617983
1716.000000	94.868871
1714.000000	95.817744
1712.000000	96.296271
1710.000000	96.253708
1708.000000	95.910612
1706.000000	95.482684
1704.000000	95.254521
1702.000000	94.079947
1700.000000	93.206217
1698.000000	93.540881
1696.000000	93.457142
1694.000000	94.568892
1692.000000	95.547315
1690.000000	95.483779
1688.000000	94.994129
1686.000000	93.396248
1684.000000	92.789684
1682.000000	94.235771
1680.000000	95.075239
1678.000000	94.900546
1676.000000	94.216952
1674.000000	94.222167
1672.000000	94.296758
1670.000000	93.876576
1668.000000	94.146959
1666.000000	94.542366
1664.000000	94.205751
1662.000000	94.041086
1660.000000	94.318902
1658.000000	94.228205
1656.000000	92.899571
1654.000000	90.421716
1652.000000	90.617349
1650.000000	92.588271
1648.000000	92.465243
1646.000000	92.115528
1644.000000	92.873579
1642.000000	93.320165
1640.000000	93.079698
1638.000000	92.167998
1636.000000	91.101157
1634.000000	91.591874
1632.000000	92.394515
1630.000000	92.237243
1628.000000	91.811735
1626.000000	91.389134
1624.000000	90.751967
1622.000000	90.454656
1620.000000	90.094999
1618.000000	88.835119
1616.000000	88.297633
1614.000000	88.758449
1612.000000	88.470764
1610.000000	87.834221
1608.000000	87.509853
1606.000000	87.558825
1604.000000	87.755966
1602.000000	88.004355
1600.000000	88.252827
1598.000000	88.460534
1596.000000	88.593325
1594.000000	88.706351
1592.000000	88.784571
1590.000000	88.796505
1588.000000	88.764118
1586.000000	88.699089
1584.000000	88.622502
1582.000000	88.566787
1580.000000	88.380631
1578.000000	87.406418
1576.000000	86.718332
1574.000000	87.619374
1572.000000	87.909752
1570.000000	87.402236
1568.000000	87.492358
1566.000000	87.606233
1564.000000	87.285518
1562.000000	85.963257
1560.000000	83.778017
1558.000000	83.814242
1556.000000	85.380522
1554.000000	86.236491
1552.000000	86.887622
1550.000000	87.248377
1548.000000	87.435980
1546.000000	87.229279
1544.000000	86.712590
1542.000000	85.820809
1540.000000	85.326566
1538.000000	86.727209
1536.000000	88.112297
1534.000000	88.121028
1532.000000	88.471568
1530.000000	88.832821
1528.000000	88.608347
1526.000000	88.263271
1524.000000	87.835153
1522.000000	87.029175
1520.000000	87.188213
1518.000000	87.650413
1516.000000	87.682239
1514.000000	87.719672
1512.000000	87.511808
1510.000000	86.879521
1508.000000	85.272164
1506.000000	84.507179
1504.000000	85.255211
1502.000000	84.736795
1500.000000	82.210020
1498.000000	78.760820
1496.000000	76.247887
1494.000000	76.046919
1492.000000	77.129810
1490.000000	78.770638
1488.000000	80.762841
1486.000000	82.472825
1484.000000	83.596202
1482.000000	84.108433
1480.000000	84.343935
1478.000000	84.208783
1476.000000	83.724629
1474.000000	83.010012
1472.000000	82.837647
1470.000000	83.347620
1468.000000	83.300457
1466.000000	82.598315
1464.000000	82.207225
1462.000000	82.039128
1460.000000	80.929339
1458.000000	78.898296
1456.000000	77.917686
1454.000000	78.004196
1452.000000	77.690101
1450.000000	77.742749
1448.000000	78.528663
1446.000000	79.562319
1444.000000	80.103794
1442.000000	80.230308
1440.000000	80.064886
1438.000000	79.454660
1436.000000	79.374683
1434.000000	80.055806
1432.000000	80.207787
1430.000000	80.119138
1428.000000	80.182856
1426.000000	80.203239
1424.000000	80.062811
1422.000000	79.747784
1420.000000	79.023332
1418.000000	79.014796
1416.000000	79.413271
1414.000000	79.380425
1412.000000	79.031045
1410.000000	78.513117
1408.000000	77.750540
1406.000000	76.885794
1404.000000	76.417015
1402.000000	76.452249
1400.000000	76.601369
1398.000000	76.999036
1396.000000	77.341477
1394.000000	77.677335
1392.000000	78.126560
1390.000000	78.132723
1388.000000	77.720105
1386.000000	77.487130
1384.000000	77.489322
1382.000000	77.614738
1380.000000	77.704522
1378.000000	77.636917
1376.000000	77.436056
1374.000000	77.270903
1372.000000	77.287489
1370.000000	77.226745
1368.000000	77.073564
1366.000000	76.907075
1364.000000	76.615217
1362.000000	76.408563
1360.000000	76.374720
1358.000000	76.289262
1356.000000	76.099010
1354.000000	75.895239
1352.000000	75.694558
1350.000000	75.481669
1348.000000	75.265821
1346.000000	75.041722
1344.000000	74.789031
1342.000000	74.485176
1340.000000	74.189414
1338.000000	74.062121
1336.000000	74.029827
1334.000000	73.960519
1332.000000	73.814684
1330.000000	73.624412
1328.000000	73.403407
1326.000000	73.163848
1324.000000	72.899667
1322.000000	72.610887
1320.000000	72.292842
1318.000000	71.991720
1316.000000	71.703950
1314.000000	71.397799
1312.000000	71.089599
1310.000000	70.786285
1308.000000	70.463432
1306.000000	70.136009
1304.000000	69.796255
1302.000000	69.454316
1300.000000	69.110923
1298.000000	68.765374
1296.000000	68.409074
1294.000000	68.045026
1292.000000	67.662046
1290.000000	67.268365
1288.000000	66.866751
1286.000000	66.470751
1284.000000	66.061453
1282.000000	65.633029
1280.000000	65.175855
1278.000000	64.687932
1276.000000	64.149439
1274.000000	63.536149
1272.000000	62.805900
1270.000000	61.921806
1268.000000	60.818359
1266.000000	59.499588
1264.000000	58.125369
1262.000000	57.022439
1260.000000	56.471123
1258.000000	56.481070
1256.000000	56.773777
1254.000000	57.022044
1252.000000	57.025839
1250.000000	56.787727
1248.000000	56.393675
1246.000000	55.922868
1244.000000	55.412741
1242.000000	54.898536
1240.000000	54.391816
1238.000000	53.901940
1236.000000	53.424881
1234.000000	52.963546
1232.000000	52.510301
1230.000000	52.064245
1228.000000	51.617032
1226.000000	51.167161
1224.000000	50.708951
1222.000000	50.239429
1220.000000	49.746642
1218.000000	49.236066
1216.000000	48.713885
1214.000000	48.200592
1212.000000	47.709992
1210.000000	47.256955
1208.000000	46.837787
1206.000000	46.442977
1204.000000	46.048281
1202.000000	45.651536
1200.000000	45.257936
1198.000000	44.872066
1196.000000	44.479298
1194.000000	44.074140
1192.000000	43.653076
1190.000000	43.223758
1188.000000	42.783878
1186.000000	42.314464
1184.000000	41.730494
1182.000000	41.002879
1180.000000	40.437196
1178.000000	40.190947
1176.000000	39.959042
1174.000000	39.603403
1172.000000	39.178143
1170.000000	38.730784
1168.000000	38.264875
1166.000000	37.790707
1164.000000	37.319631
1162.000000	36.860309
1160.000000	36.405300
1158.000000	35.970148
1156.000000	35.548017
1154.000000	35.129275
1152.000000	34.704650
1150.000000	34.285111
1148.000000	33.856576
1146.000000	33.419327
1144.000000	32.990181
1142.000000	32.612440
1140.000000	32.299800
1138.000000	31.988262
1136.000000	31.629018
1134.000000	31.237982
1132.000000	30.824281
1130.000000	30.398477
1128.000000	29.975943
1126.000000	29.559403
1124.000000	29.130627
1122.000000	28.690601
1120.000000	28.241157
1118.000000	27.784631
1116.000000	27.318126
1114.000000	26.851061
1112.000000	26.382240
1110.000000	25.918903
1108.000000	25.465135
1106.000000	25.031267
1104.000000	24.613692
1102.000000	24.204645
1100.000000	23.793036
1098.000000	23.385262
1096.000000	22.985970
1094.000000	22.605189
1092.000000	22.238711
1090.000000	21.886986
1088.000000	21.545076
1086.000000	21.207432
1084.000000	20.860858
1082.000000	20.506753
1080.000000	20.168915
1078.000000	19.864038
1076.000000	19.586990
1074.000000	19.354726
1072.000000	19.140995
1070.000000	18.919655
1068.000000	18.687667
1066.000000	18.456566
1064.000000	18.227195
1062.000000	17.995698
1060.000000	17.748901
1058.000000	17.462010
1056.000000	17.072818
1054.000000	16.560075
1052.000000	16.052652
1050.000000	15.754058
1048.000000	15.721355
1046.000000	15.804943
1044.000000	15.805906
1042.000000	15.689266
1040.000000	15.505705
1038.000000	15.293677
1036.000000	15.065211
1034.000000	14.828867
1032.000000	14.579482
1030.000000	14.323220
1028.000000	14.058235
1026.000000	13.790443
1024.000000	13.519336
1022.000000	13.251267
1020.000000	12.995426
1018.000000	12.762270
1016.000000	12.548699
1014.000000	12.360329
1012.000000	12.190978
1010.000000	12.031231
1008.000000	11.866707
1006.000000	11.690528
1004.000000	11.496800
1002.000000	11.285528
1000.000000	11.054698
