PE IR       SUBTECH     SPECTRUM    ASCII       PEDS        4.00        
   -1
TE110A_068_80K_AFTER_125K_BG.ASC
20/05/14
14:56:22.00
20/05/14
14:56:22.00
Administrator
TE110A.Thursday, May 14 2020, 016.
1000.000000
#HDR
-1
-1
#GR
cm-1
EGY
1.0
0.0
6000.000000
-2.000000
2501
8
105.091418
11.020361
#DATA
6000.000000	16.272109
5998.000000	16.304303
5996.000000	16.337486
5994.000000	16.370055
5992.000000	16.401703
5990.000000	16.432510
5988.000000	16.463714
5986.000000	16.496458
5984.000000	16.529138
5982.000000	16.561942
5980.000000	16.594160
5978.000000	16.627107
5976.000000	16.658979
5974.000000	16.691109
5972.000000	16.724273
5970.000000	16.758455
5968.000000	16.792176
5966.000000	16.825674
5964.000000	16.858665
5962.000000	16.891541
5960.000000	16.923982
5958.000000	16.957249
5956.000000	16.990658
5954.000000	17.024520
5952.000000	17.056790
5950.000000	17.089944
5948.000000	17.122911
5946.000000	17.156021
5944.000000	17.188687
5942.000000	17.221174
5940.000000	17.253635
5938.000000	17.287415
5936.000000	17.320337
5934.000000	17.353741
5932.000000	17.387288
5930.000000	17.421430
5928.000000	17.455564
5926.000000	17.489461
5924.000000	17.522331
5922.000000	17.556114
5920.000000	17.589179
5918.000000	17.623287
5916.000000	17.658298
5914.000000	17.695034
5912.000000	17.731702
5910.000000	17.767928
5908.000000	17.802133
5906.000000	17.836765
5904.000000	17.872380
5902.000000	17.908960
5900.000000	17.945619
5898.000000	17.982300
5896.000000	18.017821
5894.000000	18.053491
5892.000000	18.087779
5890.000000	18.122025
5888.000000	18.155796
5886.000000	18.190326
5884.000000	18.225213
5882.000000	18.260901
5880.000000	18.296147
5878.000000	18.331620
5876.000000	18.366494
5874.000000	18.401596
5872.000000	18.436408
5870.000000	18.471846
5868.000000	18.507382
5866.000000	18.543980
5864.000000	18.581053
5862.000000	18.618576
5860.000000	18.655216
5858.000000	18.691774
5856.000000	18.727798
5854.000000	18.764588
5852.000000	18.801442
5850.000000	18.839560
5848.000000	18.877909
5846.000000	18.916525
5844.000000	18.954911
5842.000000	18.994667
5840.000000	19.034742
5838.000000	19.075584
5836.000000	19.115655
5834.000000	19.156040
5832.000000	19.195754
5830.000000	19.235467
5828.000000	19.276305
5826.000000	19.317818
5824.000000	19.358728
5822.000000	19.399755
5820.000000	19.439824
5818.000000	19.480841
5816.000000	19.519331
5814.000000	19.557229
5812.000000	19.595630
5810.000000	19.635499
5808.000000	19.675689
5806.000000	19.715323
5804.000000	19.754611
5802.000000	19.795139
5800.000000	19.835820
5798.000000	19.876982
5796.000000	19.916810
5794.000000	19.956744
5792.000000	19.995490
5790.000000	20.034590
5788.000000	20.074121
5786.000000	20.114819
5784.000000	20.156108
5782.000000	20.197582
5780.000000	20.237725
5778.000000	20.278011
5776.000000	20.317934
5774.000000	20.359313
5772.000000	20.400971
5770.000000	20.442971
5768.000000	20.483856
5766.000000	20.524771
5764.000000	20.564779
5762.000000	20.605211
5760.000000	20.645068
5758.000000	20.686025
5756.000000	20.727578
5754.000000	20.769036
5752.000000	20.809461
5750.000000	20.850300
5748.000000	20.890891
5746.000000	20.930933
5744.000000	20.969520
5742.000000	21.008627
5740.000000	21.048769
5738.000000	21.089716
5736.000000	21.129578
5734.000000	21.169706
5732.000000	21.208188
5730.000000	21.246944
5728.000000	21.285953
5726.000000	21.326486
5724.000000	21.366753
5722.000000	21.407054
5720.000000	21.448106
5718.000000	21.492127
5716.000000	21.536361
5714.000000	21.579357
5712.000000	21.620448
5710.000000	21.661277
5708.000000	21.702404
5706.000000	21.745768
5704.000000	21.790298
5702.000000	21.835271
5700.000000	21.878081
5698.000000	21.920682
5696.000000	21.963508
5694.000000	22.007912
5692.000000	22.052497
5690.000000	22.097284
5688.000000	22.141403
5686.000000	22.185178
5684.000000	22.228753
5682.000000	22.272911
5680.000000	22.317266
5678.000000	22.362233
5676.000000	22.407239
5674.000000	22.452480
5672.000000	22.496768
5670.000000	22.541245
5668.000000	22.585032
5666.000000	22.629397
5664.000000	22.673971
5662.000000	22.719024
5660.000000	22.763605
5658.000000	22.807368
5656.000000	22.850607
5654.000000	22.895431
5652.000000	22.940164
5650.000000	22.985616
5648.000000	23.029761
5646.000000	23.074095
5644.000000	23.118259
5642.000000	23.163184
5640.000000	23.207869
5638.000000	23.253143
5636.000000	23.296977
5634.000000	23.341913
5632.000000	23.386475
5630.000000	23.430974
5628.000000	23.475009
5626.000000	23.518521
5624.000000	23.562178
5622.000000	23.606576
5620.000000	23.650782
5618.000000	23.695255
5616.000000	23.738872
5614.000000	23.783311
5612.000000	23.828062
5610.000000	23.873835
5608.000000	23.917950
5606.000000	23.962182
5604.000000	24.006888
5602.000000	24.053525
5600.000000	24.100376
5598.000000	24.146271
5596.000000	24.190964
5594.000000	24.235943
5592.000000	24.280453
5590.000000	24.326604
5588.000000	24.372515
5586.000000	24.419230
5584.000000	24.464581
5582.000000	24.510432
5580.000000	24.555899
5578.000000	24.602582
5576.000000	24.648790
5574.000000	24.695073
5572.000000	24.740872
5570.000000	24.787383
5568.000000	24.834476
5566.000000	24.882292
5564.000000	24.929695
5562.000000	24.976471
5560.000000	25.021603
5558.000000	25.068083
5556.000000	25.114744
5554.000000	25.161393
5552.000000	25.207303
5550.000000	25.254541
5548.000000	25.302311
5546.000000	25.350529
5544.000000	25.397364
5542.000000	25.444051
5540.000000	25.489294
5538.000000	25.534013
5536.000000	25.579118
5534.000000	25.626770
5532.000000	25.674894
5530.000000	25.722319
5528.000000	25.768143
5526.000000	25.813459
5524.000000	25.857851
5522.000000	25.903098
5520.000000	25.949088
5518.000000	25.996750
5516.000000	26.044826
5514.000000	26.093188
5512.000000	26.138677
5510.000000	26.182615
5508.000000	26.226780
5506.000000	26.275026
5504.000000	26.324485
5502.000000	26.373727
5500.000000	26.420794
5498.000000	26.464907
5496.000000	26.505570
5494.000000	26.547053
5492.000000	26.591572
5490.000000	26.642140
5488.000000	26.695429
5486.000000	26.750657
5484.000000	26.804797
5482.000000	26.855736
5480.000000	26.896851
5478.000000	26.930468
5476.000000	26.969977
5474.000000	27.023152
5472.000000	27.081185
5470.000000	27.133104
5468.000000	27.179245
5466.000000	27.225076
5464.000000	27.267961
5462.000000	27.312206
5460.000000	27.361957
5458.000000	27.418395
5456.000000	27.474957
5454.000000	27.525384
5452.000000	27.567698
5450.000000	27.604703
5448.000000	27.640976
5446.000000	27.683129
5444.000000	27.729201
5442.000000	27.783966
5440.000000	27.839093
5438.000000	27.887970
5436.000000	27.932578
5434.000000	27.978458
5432.000000	28.022551
5430.000000	28.066318
5428.000000	28.118740
5426.000000	28.184533
5424.000000	28.249676
5422.000000	28.305896
5420.000000	28.353478
5418.000000	28.387553
5416.000000	28.410885
5414.000000	28.439384
5412.000000	28.485456
5410.000000	28.550169
5408.000000	28.618313
5406.000000	28.681584
5404.000000	28.736760
5402.000000	28.787361
5400.000000	28.831846
5398.000000	28.867443
5396.000000	28.899320
5394.000000	28.944941
5392.000000	29.005756
5390.000000	29.066396
5388.000000	29.112208
5386.000000	29.156742
5384.000000	29.212484
5382.000000	29.271054
5380.000000	29.313020
5378.000000	29.347805
5376.000000	29.394292
5374.000000	29.459286
5372.000000	29.526079
5370.000000	29.584489
5368.000000	29.632658
5366.000000	29.677822
5364.000000	29.725295
5362.000000	29.778699
5360.000000	29.832240
5358.000000	29.874355
5356.000000	29.904665
5354.000000	29.941483
5352.000000	29.993053
5350.000000	30.048614
5348.000000	30.087035
5346.000000	30.121642
5344.000000	30.169340
5342.000000	30.222290
5340.000000	30.270011
5338.000000	30.321074
5336.000000	30.385108
5334.000000	30.453239
5332.000000	30.508614
5330.000000	30.554788
5328.000000	30.602071
5326.000000	30.658103
5324.000000	30.720511
5322.000000	30.779702
5320.000000	30.831378
5318.000000	30.879229
5316.000000	30.927327
5314.000000	30.978250
5312.000000	31.025378
5310.000000	31.066251
5308.000000	31.110071
5306.000000	31.163669
5304.000000	31.221191
5302.000000	31.275228
5300.000000	31.326479
5298.000000	31.379980
5296.000000	31.431027
5294.000000	31.474333
5292.000000	31.514104
5290.000000	31.561648
5288.000000	31.616463
5286.000000	31.673597
5284.000000	31.727180
5282.000000	31.781176
5280.000000	31.835705
5278.000000	31.891940
5276.000000	31.946914
5274.000000	31.998234
5272.000000	32.044733
5270.000000	32.089429
5268.000000	32.127546
5266.000000	32.162863
5264.000000	32.206229
5262.000000	32.267213
5260.000000	32.333759
5258.000000	32.388005
5256.000000	32.433726
5254.000000	32.483661
5252.000000	32.533451
5250.000000	32.577013
5248.000000	32.618529
5246.000000	32.671787
5244.000000	32.736528
5242.000000	32.804381
5240.000000	32.867070
5238.000000	32.920903
5236.000000	32.968180
5234.000000	33.013088
5232.000000	33.059918
5230.000000	33.106948
5228.000000	33.149300
5226.000000	33.194840
5224.000000	33.250548
5222.000000	33.313534
5220.000000	33.372411
5218.000000	33.428382
5216.000000	33.483718
5214.000000	33.536495
5212.000000	33.579218
5210.000000	33.610362
5208.000000	33.643632
5206.000000	33.698319
5204.000000	33.770681
5202.000000	33.840879
5200.000000	33.895509
5198.000000	33.945209
5196.000000	33.998543
5194.000000	34.056287
5192.000000	34.111486
5190.000000	34.163382
5188.000000	34.211967
5186.000000	34.262801
5184.000000	34.317893
5182.000000	34.376745
5180.000000	34.433049
5178.000000	34.488514
5176.000000	34.542939
5174.000000	34.596464
5172.000000	34.649232
5170.000000	34.704799
5168.000000	34.760071
5166.000000	34.812505
5164.000000	34.863800
5162.000000	34.918171
5160.000000	34.972368
5158.000000	35.025296
5156.000000	35.078898
5154.000000	35.134983
5152.000000	35.190594
5150.000000	35.245397
5148.000000	35.299902
5146.000000	35.353242
5144.000000	35.404207
5142.000000	35.457401
5140.000000	35.512624
5138.000000	35.568588
5136.000000	35.622274
5134.000000	35.675703
5132.000000	35.728663
5130.000000	35.782097
5128.000000	35.835609
5126.000000	35.890187
5124.000000	35.943776
5122.000000	35.997063
5120.000000	36.049400
5118.000000	36.102582
5116.000000	36.155470
5114.000000	36.209580
5112.000000	36.264512
5110.000000	36.320621
5108.000000	36.375107
5106.000000	36.429671
5104.000000	36.484830
5102.000000	36.541262
5100.000000	36.595944
5098.000000	36.650143
5096.000000	36.705050
5094.000000	36.762053
5092.000000	36.818852
5090.000000	36.875508
5088.000000	36.931499
5086.000000	36.987900
5084.000000	37.043868
5082.000000	37.100860
5080.000000	37.157463
5078.000000	37.213571
5076.000000	37.267971
5074.000000	37.322717
5072.000000	37.378567
5070.000000	37.435717
5068.000000	37.491877
5066.000000	37.548107
5064.000000	37.604896
5062.000000	37.662336
5060.000000	37.717592
5058.000000	37.772868
5056.000000	37.828344
5054.000000	37.884984
5052.000000	37.940532
5050.000000	37.996147
5048.000000	38.051580
5046.000000	38.107530
5044.000000	38.162433
5042.000000	38.217182
5040.000000	38.272246
5038.000000	38.329073
5036.000000	38.385016
5034.000000	38.439806
5032.000000	38.494091
5030.000000	38.551447
5028.000000	38.608305
5026.000000	38.663474
5024.000000	38.717057
5022.000000	38.772401
5020.000000	38.828263
5018.000000	38.884855
5016.000000	38.940781
5014.000000	38.996867
5012.000000	39.053130
5010.000000	39.110516
5008.000000	39.166634
5006.000000	39.222755
5004.000000	39.279267
5002.000000	39.335917
5000.000000	39.392563
4998.000000	39.450909
4996.000000	39.509224
4994.000000	39.567042
4992.000000	39.624439
4990.000000	39.683457
4988.000000	39.741867
4986.000000	39.800013
4984.000000	39.857500
4982.000000	39.915999
4980.000000	39.973619
4978.000000	40.030212
4976.000000	40.086918
4974.000000	40.144980
4972.000000	40.202583
4970.000000	40.259871
4968.000000	40.315753
4966.000000	40.372041
4964.000000	40.428690
4962.000000	40.487411
4960.000000	40.545779
4958.000000	40.604293
4956.000000	40.660844
4954.000000	40.717184
4952.000000	40.772777
4950.000000	40.829064
4948.000000	40.885247
4946.000000	40.942752
4944.000000	40.999686
4942.000000	41.057344
4940.000000	41.113828
4938.000000	41.169377
4936.000000	41.224009
4934.000000	41.280929
4932.000000	41.337773
4930.000000	41.395125
4928.000000	41.451900
4926.000000	41.508524
4924.000000	41.564518
4922.000000	41.622646
4920.000000	41.680306
4918.000000	41.737419
4916.000000	41.794023
4914.000000	41.851472
4912.000000	41.908053
4910.000000	41.965448
4908.000000	42.023625
4906.000000	42.082524
4904.000000	42.141307
4902.000000	42.200516
4900.000000	42.258535
4898.000000	42.316687
4896.000000	42.374594
4894.000000	42.433257
4892.000000	42.491522
4890.000000	42.551943
4888.000000	42.612203
4886.000000	42.671462
4884.000000	42.728955
4882.000000	42.788001
4880.000000	42.847592
4878.000000	42.907120
4876.000000	42.965181
4874.000000	43.024293
4872.000000	43.082255
4870.000000	43.139639
4868.000000	43.196344
4866.000000	43.255038
4864.000000	43.314171
4862.000000	43.373431
4860.000000	43.431417
4858.000000	43.489165
4856.000000	43.545574
4854.000000	43.602893
4852.000000	43.660676
4850.000000	43.719152
4848.000000	43.776418
4846.000000	43.834349
4844.000000	43.892230
4842.000000	43.951056
4840.000000	44.008721
4838.000000	44.066145
4836.000000	44.123015
4834.000000	44.179837
4832.000000	44.235828
4830.000000	44.293503
4828.000000	44.351651
4826.000000	44.409825
4824.000000	44.467371
4822.000000	44.526554
4820.000000	44.585566
4818.000000	44.644301
4816.000000	44.701664
4814.000000	44.760543
4812.000000	44.820077
4810.000000	44.880079
4808.000000	44.938681
4806.000000	44.998022
4804.000000	45.057440
4802.000000	45.117107
4800.000000	45.176279
4798.000000	45.237018
4796.000000	45.297130
4794.000000	45.357645
4792.000000	45.418082
4790.000000	45.479636
4788.000000	45.539310
4786.000000	45.598531
4784.000000	45.657794
4782.000000	45.718196
4780.000000	45.776999
4778.000000	45.836604
4776.000000	45.897568
4774.000000	45.959351
4772.000000	46.018531
4770.000000	46.076777
4768.000000	46.134340
4766.000000	46.193399
4764.000000	46.253277
4762.000000	46.313324
4760.000000	46.371452
4758.000000	46.430395
4756.000000	46.489543
4754.000000	46.547558
4752.000000	46.604260
4750.000000	46.663303
4748.000000	46.722131
4746.000000	46.780900
4744.000000	46.838298
4742.000000	46.895825
4740.000000	46.952755
4738.000000	47.011113
4736.000000	47.068399
4734.000000	47.126447
4732.000000	47.185000
4730.000000	47.244596
4728.000000	47.303384
4726.000000	47.362793
4724.000000	47.421529
4722.000000	47.480593
4720.000000	47.539718
4718.000000	47.601377
4716.000000	47.663143
4714.000000	47.725157
4712.000000	47.787003
4710.000000	47.849509
4708.000000	47.910233
4706.000000	47.971595
4704.000000	48.034224
4702.000000	48.099199
4700.000000	48.163713
4698.000000	48.227466
4696.000000	48.288662
4694.000000	48.349488
4692.000000	48.409881
4690.000000	48.471613
4688.000000	48.533126
4686.000000	48.595429
4684.000000	48.656745
4682.000000	48.717686
4680.000000	48.777968
4678.000000	48.838899
4676.000000	48.899220
4674.000000	48.960277
4672.000000	49.022030
4670.000000	49.084615
4668.000000	49.146057
4666.000000	49.207696
4664.000000	49.268733
4662.000000	49.329304
4660.000000	49.388783
4658.000000	49.449923
4656.000000	49.511524
4654.000000	49.573820
4652.000000	49.634537
4650.000000	49.695030
4648.000000	49.755433
4646.000000	49.816996
4644.000000	49.877764
4642.000000	49.939417
4640.000000	50.001067
4638.000000	50.063065
4636.000000	50.123346
4634.000000	50.183107
4632.000000	50.242991
4630.000000	50.304434
4628.000000	50.365613
4626.000000	50.426937
4624.000000	50.487592
4622.000000	50.549593
4620.000000	50.612494
4618.000000	50.675682
4616.000000	50.737694
4614.000000	50.800742
4612.000000	50.864739
4610.000000	50.930115
4608.000000	50.995312
4606.000000	51.060281
4604.000000	51.124497
4602.000000	51.190413
4600.000000	51.256678
4598.000000	51.322092
4596.000000	51.386005
4594.000000	51.450657
4592.000000	51.514261
4590.000000	51.578650
4588.000000	51.643595
4586.000000	51.708220
4584.000000	51.770381
4582.000000	51.832915
4580.000000	51.896576
4578.000000	51.962449
4576.000000	52.027441
4574.000000	52.090854
4572.000000	52.152881
4570.000000	52.217606
4568.000000	52.282207
4566.000000	52.346026
4564.000000	52.408550
4562.000000	52.472125
4560.000000	52.534700
4558.000000	52.598376
4556.000000	52.661128
4554.000000	52.723855
4552.000000	52.786214
4550.000000	52.849658
4548.000000	52.912075
4546.000000	52.975019
4544.000000	53.037430
4542.000000	53.100231
4540.000000	53.162526
4538.000000	53.225958
4536.000000	53.289389
4534.000000	53.353474
4532.000000	53.416434
4530.000000	53.479720
4528.000000	53.542285
4526.000000	53.604705
4524.000000	53.666612
4522.000000	53.731213
4520.000000	53.796141
4518.000000	53.860646
4516.000000	53.925101
4514.000000	53.991215
4512.000000	54.056002
4510.000000	54.121152
4508.000000	54.185817
4506.000000	54.250845
4504.000000	54.316208
4502.000000	54.383144
4500.000000	54.448805
4498.000000	54.513463
4496.000000	54.577322
4494.000000	54.643192
4492.000000	54.708968
4490.000000	54.774825
4488.000000	54.840557
4486.000000	54.906072
4484.000000	54.968759
4482.000000	55.032643
4480.000000	55.098160
4478.000000	55.162773
4476.000000	55.224884
4474.000000	55.289058
4472.000000	55.353574
4470.000000	55.417556
4468.000000	55.480389
4466.000000	55.542844
4464.000000	55.604928
4462.000000	55.667926
4460.000000	55.729897
4458.000000	55.793281
4456.000000	55.856931
4454.000000	55.919066
4452.000000	55.979015
4450.000000	56.040552
4448.000000	56.102803
4446.000000	56.165525
4444.000000	56.227416
4442.000000	56.290751
4440.000000	56.354059
4438.000000	56.416952
4436.000000	56.478736
4434.000000	56.542529
4432.000000	56.606064
4430.000000	56.669370
4428.000000	56.733205
4426.000000	56.798731
4424.000000	56.862647
4422.000000	56.926482
4420.000000	56.989179
4418.000000	57.052379
4416.000000	57.116060
4414.000000	57.180688
4412.000000	57.244582
4410.000000	57.309235
4408.000000	57.373852
4406.000000	57.439060
4404.000000	57.503820
4402.000000	57.568965
4400.000000	57.633060
4398.000000	57.696752
4396.000000	57.759630
4394.000000	57.822997
4392.000000	57.886297
4390.000000	57.950359
4388.000000	58.013119
4386.000000	58.075159
4384.000000	58.136079
4382.000000	58.198074
4380.000000	58.260037
4378.000000	58.321777
4376.000000	58.381066
4374.000000	58.440856
4372.000000	58.501548
4370.000000	58.563635
4368.000000	58.624465
4366.000000	58.684450
4364.000000	58.743873
4362.000000	58.805447
4360.000000	58.866952
4358.000000	58.929299
4356.000000	58.991337
4354.000000	59.054245
4352.000000	59.117686
4350.000000	59.181491
4348.000000	59.243972
4346.000000	59.308225
4344.000000	59.372737
4342.000000	59.436450
4340.000000	59.497804
4338.000000	59.560066
4336.000000	59.623363
4334.000000	59.687668
4332.000000	59.752259
4330.000000	59.818944
4328.000000	59.883833
4326.000000	59.947652
4324.000000	60.012399
4322.000000	60.079613
4320.000000	60.147145
4318.000000	60.215749
4316.000000	60.283350
4314.000000	60.351516
4312.000000	60.419327
4310.000000	60.487022
4308.000000	60.553815
4306.000000	60.620043
4304.000000	60.685381
4302.000000	60.752585
4300.000000	60.819179
4298.000000	60.885673
4296.000000	60.951044
4294.000000	61.015766
4292.000000	61.079164
4290.000000	61.142613
4288.000000	61.205831
4286.000000	61.269862
4284.000000	61.331378
4282.000000	61.391387
4280.000000	61.450813
4278.000000	61.511302
4276.000000	61.570816
4274.000000	61.630270
4272.000000	61.689106
4270.000000	61.748200
4268.000000	61.807555
4266.000000	61.869377
4264.000000	61.931225
4262.000000	61.992925
4260.000000	62.054753
4258.000000	62.118110
4256.000000	62.181136
4254.000000	62.244280
4252.000000	62.307320
4250.000000	62.372233
4248.000000	62.436691
4246.000000	62.501203
4244.000000	62.565847
4242.000000	62.630599
4240.000000	62.694512
4238.000000	62.759215
4236.000000	62.823410
4234.000000	62.888192
4232.000000	62.952942
4230.000000	63.018301
4228.000000	63.082565
4226.000000	63.147006
4224.000000	63.211408
4222.000000	63.276270
4220.000000	63.341008
4218.000000	63.406337
4216.000000	63.469875
4214.000000	63.533784
4212.000000	63.599595
4210.000000	63.666896
4208.000000	63.733166
4206.000000	63.800399
4204.000000	63.867178
4202.000000	63.934227
4200.000000	64.001838
4198.000000	64.070516
4196.000000	64.139215
4194.000000	64.208503
4192.000000	64.276227
4190.000000	64.343852
4188.000000	64.411603
4186.000000	64.480447
4184.000000	64.548263
4182.000000	64.614904
4180.000000	64.680120
4178.000000	64.746031
4176.000000	64.811669
4174.000000	64.877389
4172.000000	64.941737
4170.000000	65.005677
4168.000000	65.069212
4166.000000	65.134270
4164.000000	65.199649
4162.000000	65.265051
4160.000000	65.328392
4158.000000	65.392053
4156.000000	65.456715
4154.000000	65.522331
4152.000000	65.587692
4150.000000	65.653572
4148.000000	65.718148
4146.000000	65.782616
4144.000000	65.846872
4142.000000	65.912283
4140.000000	65.977549
4138.000000	66.043877
4136.000000	66.110189
4134.000000	66.176041
4132.000000	66.241288
4130.000000	66.308076
4128.000000	66.373975
4126.000000	66.439606
4124.000000	66.505866
4122.000000	66.573503
4120.000000	66.639680
4118.000000	66.705151
4116.000000	66.770932
4114.000000	66.838334
4112.000000	66.904652
4110.000000	66.970014
4108.000000	67.032491
4106.000000	67.095221
4104.000000	67.161716
4102.000000	67.229239
4100.000000	67.292716
4098.000000	67.356297
4096.000000	67.420207
4094.000000	67.484205
4092.000000	67.548801
4090.000000	67.616226
4088.000000	67.684520
4086.000000	67.754404
4084.000000	67.824767
4082.000000	67.893149
4080.000000	67.959770
4078.000000	68.028390
4076.000000	68.095402
4074.000000	68.162239
4072.000000	68.229342
4070.000000	68.295725
4068.000000	68.359915
4066.000000	68.422798
4064.000000	68.485624
4062.000000	68.550507
4060.000000	68.615322
4058.000000	68.682542
4056.000000	68.750154
4054.000000	68.814865
4052.000000	68.877297
4050.000000	68.941213
4048.000000	69.003159
4046.000000	69.063309
4044.000000	69.127247
4042.000000	69.197340
4040.000000	69.266892
4038.000000	69.335524
4036.000000	69.403635
4034.000000	69.471012
4032.000000	69.537458
4030.000000	69.604039
4028.000000	69.668515
4026.000000	69.734493
4024.000000	69.804568
4022.000000	69.875241
4020.000000	69.942232
4018.000000	70.010167
4016.000000	70.079767
4014.000000	70.149769
4012.000000	70.216838
4010.000000	70.281835
4008.000000	70.349800
4006.000000	70.422455
4004.000000	70.493351
4002.000000	70.561528
4000.000000	70.627858
3998.000000	70.692657
3996.000000	70.754689
3994.000000	70.816553
3992.000000	70.879717
3990.000000	70.947618
3988.000000	71.017257
3986.000000	71.082762
3984.000000	71.143095
3982.000000	71.204928
3980.000000	71.268408
3978.000000	71.327242
3976.000000	71.380904
3974.000000	71.439914
3972.000000	71.505111
3970.000000	71.572492
3968.000000	71.640652
3966.000000	71.703665
3964.000000	71.753204
3962.000000	71.804762
3960.000000	71.870296
3958.000000	71.938999
3956.000000	72.001384
3954.000000	72.053029
3952.000000	72.082172
3950.000000	72.106428
3948.000000	72.163319
3946.000000	72.231085
3944.000000	72.276246
3942.000000	72.351576
3940.000000	72.466985
3938.000000	72.559841
3936.000000	72.588704
3934.000000	72.570147
3932.000000	72.596932
3930.000000	72.709884
3928.000000	72.808469
3926.000000	72.850168
3924.000000	72.902631
3922.000000	72.954123
3920.000000	72.950223
3918.000000	72.971310
3916.000000	73.115636
3914.000000	73.310536
3912.000000	73.440814
3910.000000	73.491973
3908.000000	73.408698
3906.000000	73.162697
3904.000000	72.952534
3902.000000	72.960347
3900.000000	73.179336
3898.000000	73.527294
3896.000000	73.780453
3894.000000	73.746331
3892.000000	73.645477
3890.000000	73.716422
3888.000000	73.704555
3886.000000	73.628451
3884.000000	73.767848
3882.000000	73.931803
3880.000000	74.070772
3878.000000	74.254003
3876.000000	74.294283
3874.000000	74.162119
3872.000000	73.908798
3870.000000	73.817319
3868.000000	74.036209
3866.000000	74.213713
3864.000000	74.335707
3862.000000	74.578318
3860.000000	74.779794
3858.000000	74.505710
3856.000000	73.522046
3854.000000	72.828113
3852.000000	73.429777
3850.000000	74.581311
3848.000000	75.219854
3846.000000	75.304486
3844.000000	75.188800
3842.000000	74.972525
3840.000000	74.570649
3838.000000	74.373118
3836.000000	74.722886
3834.000000	75.193549
3832.000000	75.480528
3830.000000	75.691561
3828.000000	75.821806
3826.000000	75.837136
3824.000000	75.612795
3822.000000	75.328760
3820.000000	75.332139
3818.000000	75.315686
3816.000000	75.381360
3814.000000	75.916329
3812.000000	76.392092
3810.000000	76.320692
3808.000000	76.020730
3806.000000	75.984622
3804.000000	75.894517
3802.000000	75.695856
3800.000000	75.981093
3798.000000	76.466888
3796.000000	76.761395
3794.000000	76.996075
3792.000000	77.161140
3790.000000	77.235079
3788.000000	77.258780
3786.000000	77.270785
3784.000000	77.302112
3782.000000	77.291297
3780.000000	77.272354
3778.000000	77.396403
3776.000000	77.580498
3774.000000	77.623325
3772.000000	77.481263
3770.000000	77.382097
3768.000000	77.467079
3766.000000	77.618865
3764.000000	77.758515
3762.000000	77.771113
3760.000000	77.702086
3758.000000	77.742288
3756.000000	77.649342
3754.000000	77.067764
3752.000000	76.426425
3750.000000	76.434682
3748.000000	76.686306
3746.000000	76.467505
3744.000000	76.621933
3742.000000	77.540432
3740.000000	78.035677
3738.000000	77.786819
3736.000000	77.535670
3734.000000	77.646741
3732.000000	78.023812
3730.000000	78.462465
3728.000000	78.655281
3726.000000	78.679370
3724.000000	78.751297
3722.000000	78.875979
3720.000000	79.037049
3718.000000	79.176790
3716.000000	79.112407
3714.000000	78.742828
3712.000000	78.494613
3710.000000	78.744072
3708.000000	79.211370
3706.000000	79.494391
3704.000000	79.497457
3702.000000	79.468448
3700.000000	79.614937
3698.000000	79.789457
3696.000000	79.843830
3694.000000	79.710351
3692.000000	79.292759
3690.000000	78.817216
3688.000000	78.931763
3686.000000	79.602069
3684.000000	80.067634
3682.000000	80.121874
3680.000000	79.883687
3678.000000	79.295851
3676.000000	78.859984
3674.000000	79.019800
3672.000000	79.146839
3670.000000	79.275321
3668.000000	79.835033
3666.000000	80.365616
3664.000000	80.568655
3662.000000	80.603689
3660.000000	80.502794
3658.000000	80.241750
3656.000000	80.140416
3654.000000	80.160292
3652.000000	79.775119
3650.000000	79.318451
3648.000000	79.521419
3646.000000	80.169097
3644.000000	80.631004
3642.000000	80.789438
3640.000000	80.829773
3638.000000	80.833630
3636.000000	80.791759
3634.000000	80.668740
3632.000000	80.255642
3630.000000	79.721782
3628.000000	79.846242
3626.000000	80.480844
3624.000000	80.799187
3622.000000	80.630882
3620.000000	80.374912
3618.000000	80.415390
3616.000000	80.564040
3614.000000	80.549534
3612.000000	80.453228
3610.000000	80.385441
3608.000000	80.501232
3606.000000	80.767716
3604.000000	80.918614
3602.000000	80.910249
3600.000000	80.875242
3598.000000	80.842833
3596.000000	80.800759
3594.000000	80.814130
3592.000000	80.800430
3590.000000	80.602681
3588.000000	80.440138
3586.000000	80.578858
3584.000000	80.823543
3582.000000	80.935733
3580.000000	80.947219
3578.000000	80.943522
3576.000000	80.943592
3574.000000	80.943765
3572.000000	80.882710
3570.000000	80.670522
3568.000000	80.458550
3566.000000	80.506381
3564.000000	80.705472
3562.000000	80.823430
3560.000000	80.861843
3558.000000	80.883740
3556.000000	80.872838
3554.000000	80.824233
3552.000000	80.796144
3550.000000	80.780490
3548.000000	80.713390
3546.000000	80.662513
3544.000000	80.704552
3542.000000	80.775264
3540.000000	80.793841
3538.000000	80.763710
3536.000000	80.739337
3534.000000	80.734007
3532.000000	80.700357
3530.000000	80.629455
3528.000000	80.563665
3526.000000	80.517762
3524.000000	80.484491
3522.000000	80.478995
3520.000000	80.481049
3518.000000	80.464770
3516.000000	80.436191
3514.000000	80.392479
3512.000000	80.328901
3510.000000	80.268696
3508.000000	80.231000
3506.000000	80.172263
3504.000000	80.085730
3502.000000	80.038343
3500.000000	80.023423
3498.000000	79.983777
3496.000000	79.929014
3494.000000	79.884712
3492.000000	79.837363
3490.000000	79.776189
3488.000000	79.719418
3486.000000	79.678278
3484.000000	79.632851
3482.000000	79.592351
3480.000000	79.582434
3478.000000	79.587703
3476.000000	79.587518
3474.000000	79.589949
3472.000000	79.599160
3470.000000	79.605209
3468.000000	79.614766
3466.000000	79.643609
3464.000000	79.682426
3462.000000	79.721145
3460.000000	79.762968
3458.000000	79.803687
3456.000000	79.838862
3454.000000	79.869239
3452.000000	79.891133
3450.000000	79.891454
3448.000000	79.883535
3446.000000	79.910354
3444.000000	79.965325
3442.000000	80.027756
3440.000000	80.104010
3438.000000	80.190758
3436.000000	80.289351
3434.000000	80.409918
3432.000000	80.548795
3430.000000	80.691346
3428.000000	80.833740
3426.000000	80.970737
3424.000000	81.089682
3422.000000	81.192769
3420.000000	81.302673
3418.000000	81.419410
3416.000000	81.519875
3414.000000	81.600973
3412.000000	81.674381
3410.000000	81.742348
3408.000000	81.803618
3406.000000	81.858619
3404.000000	81.906970
3402.000000	81.952497
3400.000000	82.008859
3398.000000	82.085146
3396.000000	82.167118
3394.000000	82.233911
3392.000000	82.298436
3390.000000	82.381080
3388.000000	82.462189
3386.000000	82.525285
3384.000000	82.585108
3382.000000	82.645582
3380.000000	82.700377
3378.000000	82.751845
3376.000000	82.803108
3374.000000	82.851033
3372.000000	82.887357
3370.000000	82.913168
3368.000000	82.948921
3366.000000	83.000957
3364.000000	83.056950
3362.000000	83.107296
3360.000000	83.154216
3358.000000	83.199346
3356.000000	83.242770
3354.000000	83.285487
3352.000000	83.323964
3350.000000	83.363818
3348.000000	83.411299
3346.000000	83.458046
3344.000000	83.499114
3342.000000	83.536299
3340.000000	83.570034
3338.000000	83.604121
3336.000000	83.646961
3334.000000	83.695377
3332.000000	83.741561
3330.000000	83.781042
3328.000000	83.814921
3326.000000	83.848217
3324.000000	83.886839
3322.000000	83.928650
3320.000000	83.968545
3318.000000	84.006001
3316.000000	84.040081
3314.000000	84.070410
3312.000000	84.099107
3310.000000	84.123987
3308.000000	84.146784
3306.000000	84.176114
3304.000000	84.222300
3302.000000	84.276196
3300.000000	84.320681
3298.000000	84.354972
3296.000000	84.386592
3294.000000	84.416417
3292.000000	84.449185
3290.000000	84.492776
3288.000000	84.540788
3286.000000	84.583536
3284.000000	84.621355
3282.000000	84.658365
3280.000000	84.696038
3278.000000	84.730154
3276.000000	84.762452
3274.000000	84.797227
3272.000000	84.835368
3270.000000	84.880998
3268.000000	84.934662
3266.000000	84.983375
3264.000000	85.026669
3262.000000	85.068402
3260.000000	85.110274
3258.000000	85.152997
3256.000000	85.197393
3254.000000	85.245677
3252.000000	85.298725
3250.000000	85.348424
3248.000000	85.389783
3246.000000	85.430373
3244.000000	85.483091
3242.000000	85.540452
3240.000000	85.593201
3238.000000	85.642312
3236.000000	85.687644
3234.000000	85.729105
3232.000000	85.779822
3230.000000	85.838251
3228.000000	85.894179
3226.000000	85.947943
3224.000000	85.997788
3222.000000	86.042582
3220.000000	86.088751
3218.000000	86.139301
3216.000000	86.188603
3214.000000	86.236599
3212.000000	86.287431
3210.000000	86.341437
3208.000000	86.402173
3206.000000	86.467602
3204.000000	86.536465
3202.000000	86.605683
3200.000000	86.672677
3198.000000	86.742095
3196.000000	86.820303
3194.000000	86.898664
3192.000000	86.971337
3190.000000	87.042793
3188.000000	87.112610
3186.000000	87.181277
3184.000000	87.255506
3182.000000	87.329761
3180.000000	87.397365
3178.000000	87.465300
3176.000000	87.541977
3174.000000	87.618996
3172.000000	87.692876
3170.000000	87.766566
3168.000000	87.840825
3166.000000	87.916117
3164.000000	87.993778
3162.000000	88.071564
3160.000000	88.151040
3158.000000	88.230898
3156.000000	88.307235
3154.000000	88.376731
3152.000000	88.448885
3150.000000	88.533867
3148.000000	88.619833
3146.000000	88.699024
3144.000000	88.775556
3142.000000	88.846615
3140.000000	88.915079
3138.000000	88.986845
3136.000000	89.058852
3134.000000	89.125101
3132.000000	89.193558
3130.000000	89.262922
3128.000000	89.327585
3126.000000	89.390260
3124.000000	89.449148
3122.000000	89.499221
3120.000000	89.546500
3118.000000	89.596049
3116.000000	89.652799
3114.000000	89.718959
3112.000000	89.782871
3110.000000	89.834931
3108.000000	89.888111
3106.000000	89.949112
3104.000000	90.009077
3102.000000	90.065730
3100.000000	90.128784
3098.000000	90.195272
3096.000000	90.262141
3094.000000	90.332155
3092.000000	90.399150
3090.000000	90.459528
3088.000000	90.518591
3086.000000	90.571050
3084.000000	90.617070
3082.000000	90.658532
3080.000000	90.694564
3078.000000	90.733960
3076.000000	90.781442
3074.000000	90.818312
3072.000000	90.838755
3070.000000	90.847152
3068.000000	90.850594
3066.000000	90.866336
3064.000000	90.905089
3062.000000	90.957549
3060.000000	91.013390
3058.000000	91.068807
3056.000000	91.130314
3054.000000	91.196592
3052.000000	91.255382
3050.000000	91.304456
3048.000000	91.353780
3046.000000	91.398099
3044.000000	91.429926
3042.000000	91.453878
3040.000000	91.481955
3038.000000	91.505197
3036.000000	91.513472
3034.000000	91.509661
3032.000000	91.498415
3030.000000	91.471859
3028.000000	91.410754
3026.000000	91.305356
3024.000000	91.178169
3022.000000	91.062503
3020.000000	90.998010
3018.000000	91.024845
3016.000000	91.163618
3014.000000	91.396152
3012.000000	91.679819
3010.000000	91.962251
3008.000000	92.195460
3006.000000	92.358980
3004.000000	92.473292
3002.000000	92.555295
3000.000000	92.613361
2998.000000	92.654746
2996.000000	92.686322
2994.000000	92.707123
2992.000000	92.719355
2990.000000	92.722514
2988.000000	92.709851
2986.000000	92.676216
2984.000000	92.618159
2982.000000	92.530284
2980.000000	92.411112
2978.000000	92.248539
2976.000000	92.024243
2974.000000	91.720953
2972.000000	91.329463
2970.000000	90.850233
2968.000000	90.327163
2966.000000	89.844739
2964.000000	89.491411
2962.000000	89.320244
2960.000000	89.335161
2958.000000	89.479358
2956.000000	89.672555
2954.000000	89.856871
2952.000000	90.002070
2950.000000	90.074812
2948.000000	90.040473
2946.000000	89.877121
2944.000000	89.584900
2942.000000	89.176903
2940.000000	88.688825
2938.000000	88.179421
2936.000000	87.709432
2934.000000	87.290486
2932.000000	86.894595
2930.000000	86.506128
2928.000000	86.179439
2926.000000	86.018149
2924.000000	86.128026
2922.000000	86.548082
2920.000000	87.221915
2918.000000	88.036166
2916.000000	88.885420
2914.000000	89.684888
2912.000000	90.376765
2910.000000	90.931522
2908.000000	91.363780
2906.000000	91.712833
2904.000000	92.015365
2902.000000	92.290319
2900.000000	92.546471
2898.000000	92.785984
2896.000000	93.012347
2894.000000	93.228214
2892.000000	93.433526
2890.000000	93.620340
2888.000000	93.783464
2886.000000	93.913450
2884.000000	94.003039
2882.000000	94.046899
2880.000000	94.045225
2878.000000	93.992588
2876.000000	93.881633
2874.000000	93.703953
2872.000000	93.452592
2870.000000	93.096842
2868.000000	92.614782
2866.000000	92.042334
2864.000000	91.503118
2862.000000	91.151947
2860.000000	91.076870
2858.000000	91.243774
2856.000000	91.546878
2854.000000	91.904497
2852.000000	92.316295
2850.000000	92.821704
2848.000000	93.425398
2846.000000	94.046047
2844.000000	94.589576
2842.000000	95.022335
2840.000000	95.360715
2838.000000	95.629586
2836.000000	95.852329
2834.000000	96.036548
2832.000000	96.193382
2830.000000	96.329596
2828.000000	96.451507
2826.000000	96.562411
2824.000000	96.665578
2822.000000	96.759556
2820.000000	96.847197
2818.000000	96.927088
2816.000000	96.999025
2814.000000	97.061825
2812.000000	97.120203
2810.000000	97.174380
2808.000000	97.225166
2806.000000	97.272241
2804.000000	97.319917
2802.000000	97.365768
2800.000000	97.410088
2798.000000	97.450942
2796.000000	97.492694
2794.000000	97.536263
2792.000000	97.584887
2790.000000	97.641167
2788.000000	97.711411
2786.000000	97.792368
2784.000000	97.877562
2782.000000	97.959830
2780.000000	98.036945
2778.000000	98.105879
2776.000000	98.168688
2774.000000	98.225377
2772.000000	98.281096
2770.000000	98.334657
2768.000000	98.386931
2766.000000	98.436470
2764.000000	98.485481
2762.000000	98.531618
2760.000000	98.577484
2758.000000	98.621746
2756.000000	98.666227
2754.000000	98.708509
2752.000000	98.749005
2750.000000	98.787117
2748.000000	98.825149
2746.000000	98.861330
2744.000000	98.897868
2742.000000	98.933322
2740.000000	98.969094
2738.000000	99.004402
2736.000000	99.040928
2734.000000	99.075131
2732.000000	99.108778
2730.000000	99.141692
2728.000000	99.175977
2726.000000	99.208850
2724.000000	99.242431
2722.000000	99.274185
2720.000000	99.307009
2718.000000	99.338501
2716.000000	99.368640
2714.000000	99.396271
2712.000000	99.423769
2710.000000	99.448304
2708.000000	99.471657
2706.000000	99.495561
2704.000000	99.526691
2702.000000	99.564443
2700.000000	99.608695
2698.000000	99.655464
2696.000000	99.703657
2694.000000	99.749978
2692.000000	99.794817
2690.000000	99.836752
2688.000000	99.878996
2686.000000	99.919701
2684.000000	99.959380
2682.000000	99.994893
2680.000000	100.031116
2678.000000	100.066476
2676.000000	100.099964
2674.000000	100.130795
2672.000000	100.162570
2670.000000	100.193496
2668.000000	100.223568
2666.000000	100.251232
2664.000000	100.280454
2662.000000	100.309588
2660.000000	100.340572
2658.000000	100.372154
2656.000000	100.406093
2654.000000	100.441867
2652.000000	100.481823
2650.000000	100.522398
2648.000000	100.563925
2646.000000	100.602120
2644.000000	100.638390
2642.000000	100.673959
2640.000000	100.711229
2638.000000	100.746901
2636.000000	100.782182
2634.000000	100.814930
2632.000000	100.847687
2630.000000	100.876697
2628.000000	100.905727
2626.000000	100.934535
2624.000000	100.963959
2622.000000	100.991215
2620.000000	101.019160
2618.000000	101.045920
2616.000000	101.072336
2614.000000	101.096128
2612.000000	101.121645
2610.000000	101.143829
2608.000000	101.162879
2606.000000	101.180462
2604.000000	101.197986
2602.000000	101.210710
2600.000000	101.221898
2598.000000	101.230121
2596.000000	101.240539
2594.000000	101.255033
2592.000000	101.279009
2590.000000	101.310674
2588.000000	101.352563
2586.000000	101.402962
2584.000000	101.462868
2582.000000	101.525741
2580.000000	101.589368
2578.000000	101.648184
2576.000000	101.702382
2574.000000	101.749310
2572.000000	101.791671
2570.000000	101.829610
2568.000000	101.866981
2566.000000	101.901320
2564.000000	101.935318
2562.000000	101.966117
2560.000000	101.996546
2558.000000	102.024675
2556.000000	102.053208
2554.000000	102.079296
2552.000000	102.105470
2550.000000	102.129647
2548.000000	102.155605
2546.000000	102.181755
2544.000000	102.208956
2542.000000	102.234355
2540.000000	102.260859
2538.000000	102.286249
2536.000000	102.314996
2534.000000	102.342751
2532.000000	102.369187
2530.000000	102.393516
2528.000000	102.418962
2526.000000	102.443228
2524.000000	102.469320
2522.000000	102.493147
2520.000000	102.517277
2518.000000	102.539945
2516.000000	102.563564
2514.000000	102.586093
2512.000000	102.611471
2510.000000	102.634389
2508.000000	102.656017
2506.000000	102.675459
2504.000000	102.696490
2502.000000	102.716238
2500.000000	102.739893
2498.000000	102.764426
2496.000000	102.789701
2494.000000	102.815046
2492.000000	102.843048
2490.000000	102.868362
2488.000000	102.895024
2486.000000	102.920432
2484.000000	102.946641
2482.000000	102.972428
2480.000000	102.999759
2478.000000	103.022050
2476.000000	103.042806
2474.000000	103.062851
2472.000000	103.084894
2470.000000	103.103403
2468.000000	103.121803
2466.000000	103.137675
2464.000000	103.153561
2462.000000	103.170008
2460.000000	103.188622
2458.000000	103.204174
2456.000000	103.221314
2454.000000	103.236967
2452.000000	103.253146
2450.000000	103.268730
2448.000000	103.286841
2446.000000	103.302506
2444.000000	103.318277
2442.000000	103.334239
2440.000000	103.350688
2438.000000	103.363489
2436.000000	103.378408
2434.000000	103.392531
2432.000000	103.406544
2430.000000	103.416435
2428.000000	103.427322
2426.000000	103.440057
2424.000000	103.457094
2422.000000	103.472243
2420.000000	103.487475
2418.000000	103.498603
2416.000000	103.510328
2414.000000	103.521616
2412.000000	103.534641
2410.000000	103.546825
2408.000000	103.561518
2406.000000	103.573623
2404.000000	103.587081
2402.000000	103.600716
2400.000000	103.618069
2398.000000	103.634208
2396.000000	103.651811
2394.000000	103.668519
2392.000000	103.687039
2390.000000	103.702637
2388.000000	103.714889
2386.000000	103.717117
2384.000000	103.707475
2382.000000	103.673578
2380.000000	103.606019
2378.000000	103.493434
2376.000000	103.334235
2374.000000	103.128944
2372.000000	102.891731
2370.000000	102.637762
2368.000000	102.396332
2366.000000	102.194057
2364.000000	102.062176
2362.000000	102.017031
2360.000000	102.072049
2358.000000	102.226727
2356.000000	102.477128
2354.000000	102.801588
2352.000000	103.163486
2350.000000	103.426406
2348.000000	103.413439
2346.000000	103.178399
2344.000000	102.929064
2342.000000	102.748193
2340.000000	102.643806
2338.000000	102.596431
2336.000000	102.595331
2334.000000	102.627773
2332.000000	102.690853
2330.000000	102.777653
2328.000000	102.887299
2326.000000	103.007073
2324.000000	103.131635
2322.000000	103.254494
2320.000000	103.373237
2318.000000	103.479330
2316.000000	103.577166
2314.000000	103.661408
2312.000000	103.736046
2310.000000	103.798501
2308.000000	103.852380
2306.000000	103.894630
2304.000000	103.930631
2302.000000	103.958389
2300.000000	103.984582
2298.000000	104.004949
2296.000000	104.023847
2294.000000	104.038404
2292.000000	104.053690
2290.000000	104.065225
2288.000000	104.076766
2286.000000	104.084329
2284.000000	104.091351
2282.000000	104.091590
2280.000000	104.090958
2278.000000	104.086657
2276.000000	104.081525
2274.000000	104.074725
2272.000000	104.069600
2270.000000	104.062898
2268.000000	104.059121
2266.000000	104.054884
2264.000000	104.051605
2262.000000	104.046482
2260.000000	104.045244
2258.000000	104.042806
2256.000000	104.042390
2254.000000	104.043145
2252.000000	104.049364
2250.000000	104.053926
2248.000000	104.062985
2246.000000	104.071637
2244.000000	104.082104
2242.000000	104.092343
2240.000000	104.106562
2238.000000	104.119047
2236.000000	104.134309
2234.000000	104.146367
2232.000000	104.161200
2230.000000	104.173768
2228.000000	104.186595
2226.000000	104.195912
2224.000000	104.205856
2222.000000	104.213631
2220.000000	104.223362
2218.000000	104.230142
2216.000000	104.238058
2214.000000	104.242174
2212.000000	104.248120
2210.000000	104.251972
2208.000000	104.256536
2206.000000	104.259156
2204.000000	104.264855
2202.000000	104.268296
2200.000000	104.274348
2198.000000	104.277688
2196.000000	104.281263
2194.000000	104.281199
2192.000000	104.284027
2190.000000	104.283136
2188.000000	104.283757
2186.000000	104.282147
2184.000000	104.282693
2182.000000	104.280838
2180.000000	104.281229
2178.000000	104.279210
2176.000000	104.277658
2174.000000	104.267721
2172.000000	104.244611
2170.000000	104.217839
2168.000000	104.228759
2166.000000	104.250689
2164.000000	104.260028
2162.000000	104.259595
2160.000000	104.260271
2158.000000	104.258649
2156.000000	104.259820
2154.000000	104.256123
2152.000000	104.254390
2150.000000	104.250808
2148.000000	104.250462
2146.000000	104.249976
2144.000000	104.252282
2142.000000	104.248713
2140.000000	104.246747
2138.000000	104.242478
2136.000000	104.240793
2134.000000	104.239081
2132.000000	104.240800
2130.000000	104.239246
2128.000000	104.237310
2126.000000	104.233718
2124.000000	104.234991
2122.000000	104.236650
2120.000000	104.240853
2118.000000	104.240850
2116.000000	104.242605
2114.000000	104.247614
2112.000000	104.259291
2110.000000	104.270473
2108.000000	104.284443
2106.000000	104.295428
2104.000000	104.308008
2102.000000	104.318463
2100.000000	104.332037
2098.000000	104.342699
2096.000000	104.356464
2094.000000	104.368279
2092.000000	104.379283
2090.000000	104.386067
2088.000000	104.405122
2086.000000	104.422097
2084.000000	104.440909
2082.000000	104.454693
2080.000000	104.471609
2078.000000	104.485924
2076.000000	104.504582
2074.000000	104.518552
2072.000000	104.537594
2070.000000	104.554473
2068.000000	104.569294
2066.000000	104.573185
2064.000000	104.596827
2062.000000	104.630126
2060.000000	104.655683
2058.000000	104.675651
2056.000000	104.699272
2054.000000	104.717697
2052.000000	104.739713
2050.000000	104.759144
2048.000000	104.779856
2046.000000	104.795142
2044.000000	104.809158
2042.000000	104.816918
2040.000000	104.840285
2038.000000	104.861693
2036.000000	104.876755
2034.000000	104.885006
2032.000000	104.887123
2030.000000	104.868625
2028.000000	104.877372
2026.000000	104.911013
2024.000000	104.935235
2022.000000	104.942842
2020.000000	104.935119
2018.000000	104.917500
2016.000000	104.946065
2014.000000	104.994136
2012.000000	105.023365
2010.000000	105.038251
2008.000000	105.054373
2006.000000	105.066758
2004.000000	105.078314
2002.000000	105.082743
2000.000000	105.087321
1998.000000	105.091418
1996.000000	105.090943
1994.000000	105.037331
1992.000000	104.990906
1990.000000	105.026499
1988.000000	105.066438
1986.000000	105.080214
1984.000000	105.082229
1982.000000	105.072042
1980.000000	105.062595
1978.000000	105.048207
1976.000000	105.035061
1974.000000	105.018372
1972.000000	104.999967
1970.000000	104.953703
1968.000000	104.884621
1966.000000	104.868990
1964.000000	104.887033
1962.000000	104.834219
1960.000000	104.713717
1958.000000	104.682369
1956.000000	104.761785
1954.000000	104.790909
1952.000000	104.776264
1950.000000	104.740791
1948.000000	104.712598
1946.000000	104.655143
1944.000000	104.540526
1942.000000	104.495131
1940.000000	104.587246
1938.000000	104.620524
1936.000000	104.602961
1934.000000	104.569855
1932.000000	104.545955
1930.000000	104.519032
1928.000000	104.494001
1926.000000	104.427290
1924.000000	104.312031
1922.000000	104.249476
1920.000000	104.135766
1918.000000	103.986097
1916.000000	104.111124
1914.000000	104.202850
1912.000000	104.141565
1910.000000	104.039976
1908.000000	104.006203
1906.000000	103.988854
1904.000000	103.952428
1902.000000	103.896927
1900.000000	103.854059
1898.000000	103.785464
1896.000000	103.707741
1894.000000	103.672956
1892.000000	103.612418
1890.000000	103.480046
1888.000000	103.530706
1886.000000	103.611001
1884.000000	103.616203
1882.000000	103.600873
1880.000000	103.585007
1878.000000	103.555825
1876.000000	103.537584
1874.000000	103.495638
1872.000000	103.322966
1870.000000	102.971121
1868.000000	102.936273
1866.000000	103.191544
1864.000000	103.326337
1862.000000	103.312694
1860.000000	103.279809
1858.000000	103.247155
1856.000000	103.229341
1854.000000	103.191738
1852.000000	103.152905
1850.000000	103.065651
1848.000000	102.889853
1846.000000	102.395888
1844.000000	102.095634
1842.000000	102.527766
1840.000000	102.824255
1838.000000	102.772907
1836.000000	102.722979
1834.000000	102.649173
1832.000000	102.348071
1830.000000	102.042912
1828.000000	102.117282
1826.000000	102.085698
1824.000000	102.111021
1822.000000	102.256996
1820.000000	102.247980
1818.000000	102.155918
1816.000000	102.098887
1814.000000	102.001636
1812.000000	101.811760
1810.000000	101.697140
1808.000000	101.703856
1806.000000	101.648572
1804.000000	101.457320
1802.000000	101.150711
1800.000000	101.009798
1798.000000	101.041896
1796.000000	100.907991
1794.000000	100.309669
1792.000000	99.984064
1790.000000	100.374514
1788.000000	100.595383
1786.000000	100.372019
1784.000000	100.226260
1782.000000	100.139866
1780.000000	100.039734
1778.000000	100.000586
1776.000000	99.689827
1774.000000	98.834674
1772.000000	98.412220
1770.000000	98.826330
1768.000000	99.069589
1766.000000	99.316492
1764.000000	99.158301
1762.000000	98.764521
1760.000000	98.822602
1758.000000	98.753843
1756.000000	98.623354
1754.000000	98.408126
1752.000000	97.658318
1750.000000	97.423398
1748.000000	97.680666
1746.000000	97.780136
1744.000000	97.642829
1742.000000	97.281991
1740.000000	96.927736
1738.000000	96.907177
1736.000000	95.969846
1734.000000	95.005630
1732.000000	95.936687
1730.000000	96.828711
1728.000000	97.059203
1726.000000	97.064206
1724.000000	96.960297
1722.000000	96.774784
1720.000000	95.867374
1718.000000	94.605631
1716.000000	94.856703
1714.000000	95.810897
1712.000000	96.293321
1710.000000	96.251199
1708.000000	95.905275
1706.000000	95.475273
1704.000000	95.246604
1702.000000	94.066088
1700.000000	93.187453
1698.000000	93.524558
1696.000000	93.440952
1694.000000	94.556523
1692.000000	95.541739
1690.000000	95.479795
1688.000000	94.987888
1686.000000	93.383671
1684.000000	92.773297
1682.000000	94.225089
1680.000000	95.069027
1678.000000	94.894181
1676.000000	94.207586
1674.000000	94.211667
1672.000000	94.286447
1670.000000	93.863614
1668.000000	94.135895
1666.000000	94.536674
1664.000000	94.199347
1662.000000	94.032594
1660.000000	94.311528
1658.000000	94.219999
1656.000000	92.886580
1654.000000	90.397608
1652.000000	90.591858
1650.000000	92.573409
1648.000000	92.450149
1646.000000	92.097563
1644.000000	92.861825
1642.000000	93.312062
1640.000000	93.069510
1638.000000	92.154923
1636.000000	91.083823
1634.000000	91.575067
1632.000000	92.381104
1630.000000	92.224511
1628.000000	91.798725
1626.000000	91.377094
1624.000000	90.741198
1622.000000	90.446312
1620.000000	90.087601
1618.000000	88.822082
1616.000000	88.283463
1614.000000	88.751433
1612.000000	88.464521
1610.000000	87.825756
1608.000000	87.503269
1606.000000	87.552775
1604.000000	87.749067
1602.000000	87.997685
1600.000000	88.245823
1598.000000	88.450970
1596.000000	88.585299
1594.000000	88.701485
1592.000000	88.778595
1590.000000	88.788802
1588.000000	88.757336
1586.000000	88.692776
1584.000000	88.616813
1582.000000	88.563713
1580.000000	88.377379
1578.000000	87.396658
1576.000000	86.703920
1574.000000	87.609984
1572.000000	87.901766
1570.000000	87.391297
1568.000000	87.484000
1566.000000	87.600364
1564.000000	87.279136
1562.000000	85.952284
1560.000000	83.756319
1558.000000	83.792303
1556.000000	85.366928
1554.000000	86.226129
1552.000000	86.880052
1550.000000	87.240718
1548.000000	87.426146
1546.000000	87.217040
1544.000000	86.699459
1542.000000	85.804841
1540.000000	85.306207
1538.000000	86.711501
1536.000000	88.104366
1534.000000	88.112953
1532.000000	88.464404
1530.000000	88.827155
1528.000000	88.600720
1526.000000	88.252301
1524.000000	87.821218
1522.000000	87.012021
1520.000000	87.172352
1518.000000	87.639507
1516.000000	87.674756
1514.000000	87.712384
1512.000000	87.501407
1510.000000	86.868363
1508.000000	85.257609
1506.000000	84.489652
1504.000000	85.243769
1502.000000	84.729961
1500.000000	82.204462
1498.000000	78.755532
1496.000000	76.240501
1494.000000	76.038332
1492.000000	77.119956
1490.000000	78.759157
1488.000000	80.751064
1486.000000	82.463925
1484.000000	83.590065
1482.000000	84.103092
1480.000000	84.338374
1478.000000	84.200957
1476.000000	83.715882
1474.000000	83.001106
1472.000000	82.826900
1470.000000	83.340020
1468.000000	83.296781
1466.000000	82.595042
1464.000000	82.203161
1462.000000	82.034672
1460.000000	80.921487
1458.000000	78.884932
1456.000000	77.904617
1454.000000	77.997652
1452.000000	77.687465
1450.000000	77.739066
1448.000000	78.522869
1446.000000	79.557550
1444.000000	80.098879
1442.000000	80.222194
1440.000000	80.056616
1438.000000	79.444108
1436.000000	79.363242
1434.000000	80.048992
1432.000000	80.201052
1430.000000	80.112031
1428.000000	80.176666
1426.000000	80.198245
1424.000000	80.058931
1422.000000	79.743561
1420.000000	79.015144
1418.000000	79.005993
1416.000000	79.404822
1414.000000	79.373824
1412.000000	79.026683
1410.000000	78.506884
1408.000000	77.744361
1406.000000	76.881874
1404.000000	76.412443
1402.000000	76.445505
1400.000000	76.592866
1398.000000	76.988609
1396.000000	77.330931
1394.000000	77.668823
1392.000000	78.118190
1390.000000	78.124713
1388.000000	77.713871
1386.000000	77.483044
1384.000000	77.485447
1382.000000	77.607136
1380.000000	77.695656
1378.000000	77.627617
1376.000000	77.425776
1374.000000	77.262964
1372.000000	77.280094
1370.000000	77.217269
1368.000000	77.065114
1366.000000	76.899802
1364.000000	76.606817
1362.000000	76.398654
1360.000000	76.364270
1358.000000	76.279639
1356.000000	76.090058
1354.000000	75.886032
1352.000000	75.684115
1350.000000	75.469389
1348.000000	75.254082
1346.000000	75.031797
1344.000000	74.780083
1342.000000	74.474633
1340.000000	74.176925
1338.000000	74.049142
1336.000000	74.016209
1334.000000	73.947286
1332.000000	73.802985
1330.000000	73.612410
1328.000000	73.391818
1326.000000	73.152411
1324.000000	72.887234
1322.000000	72.598150
1320.000000	72.278649
1318.000000	71.977313
1316.000000	71.691142
1314.000000	71.384952
1312.000000	71.076899
1310.000000	70.774763
1308.000000	70.450713
1306.000000	70.123799
1304.000000	69.785826
1302.000000	69.441739
1300.000000	69.096367
1298.000000	68.753059
1296.000000	68.399002
1294.000000	68.034655
1292.000000	67.651234
1290.000000	67.256652
1288.000000	66.855050
1286.000000	66.458836
1284.000000	66.048450
1282.000000	65.618459
1280.000000	65.162065
1278.000000	64.677693
1276.000000	64.140066
1274.000000	63.525326
1272.000000	62.794482
1270.000000	61.911204
1268.000000	60.808537
1266.000000	59.491043
1264.000000	58.120957
1262.000000	57.021217
1260.000000	56.469382
1258.000000	56.477635
1256.000000	56.770562
1254.000000	57.019401
1252.000000	57.018089
1250.000000	56.773563
1248.000000	56.377024
1246.000000	55.906520
1244.000000	55.398740
1242.000000	54.885998
1240.000000	54.378953
1238.000000	53.887736
1236.000000	53.409401
1234.000000	52.948464
1232.000000	52.495215
1230.000000	52.051208
1228.000000	51.604784
1226.000000	51.154386
1224.000000	50.695244
1222.000000	50.224566
1220.000000	49.731334
1218.000000	49.221095
1216.000000	48.699369
1214.000000	48.185762
1212.000000	47.695186
1210.000000	47.243923
1208.000000	46.825748
1206.000000	46.429290
1204.000000	46.033944
1202.000000	45.637093
1200.000000	45.240145
1198.000000	44.851947
1196.000000	44.460849
1194.000000	44.057091
1192.000000	43.637122
1190.000000	43.208283
1188.000000	42.767211
1186.000000	42.298447
1184.000000	41.716652
1182.000000	40.991040
1180.000000	40.422926
1178.000000	40.173789
1176.000000	39.942842
1174.000000	39.586696
1172.000000	39.160351
1170.000000	38.714368
1168.000000	38.248751
1166.000000	37.773627
1164.000000	37.301813
1162.000000	36.841673
1160.000000	36.387594
1158.000000	35.952820
1156.000000	35.531584
1154.000000	35.115008
1152.000000	34.690174
1150.000000	34.268443
1148.000000	33.837112
1146.000000	33.398605
1144.000000	32.968750
1142.000000	32.590971
1140.000000	32.280642
1138.000000	31.970303
1136.000000	31.611240
1134.000000	31.218989
1132.000000	30.803856
1130.000000	30.377995
1128.000000	29.953982
1126.000000	29.536492
1124.000000	29.109406
1122.000000	28.672405
1120.000000	28.223073
1118.000000	27.765653
1116.000000	27.298672
1114.000000	26.831708
1112.000000	26.364727
1110.000000	25.901386
1108.000000	25.445594
1106.000000	25.010735
1104.000000	24.592798
1102.000000	24.183916
1100.000000	23.773966
1098.000000	23.368289
1096.000000	22.969693
1094.000000	22.585168
1092.000000	22.216905
1090.000000	21.866421
1088.000000	21.525321
1086.000000	21.190027
1084.000000	20.843559
1082.000000	20.487716
1080.000000	20.149198
1078.000000	19.845237
1076.000000	19.568467
1074.000000	19.336117
1072.000000	19.119785
1070.000000	18.894902
1068.000000	18.663996
1066.000000	18.433804
1064.000000	18.201172
1062.000000	17.967053
1060.000000	17.721246
1058.000000	17.436721
1056.000000	17.048428
1054.000000	16.535169
1052.000000	16.025809
1050.000000	15.727654
1048.000000	15.694774
1046.000000	15.776769
1044.000000	15.778014
1042.000000	15.663788
1040.000000	15.480411
1038.000000	15.269024
1036.000000	15.040716
1034.000000	14.800775
1032.000000	14.550889
1030.000000	14.294921
1028.000000	14.028644
1026.000000	13.760325
1024.000000	13.489654
1022.000000	13.222415
1020.000000	12.967268
1018.000000	12.732952
1016.000000	12.518180
1014.000000	12.329248
1012.000000	12.160780
1010.000000	12.000381
1008.000000	11.834713
1006.000000	11.658404
1004.000000	11.461003
1002.000000	11.247170
1000.000000	11.020361
