PE IR       SUBTECH     SPECTRUM    ASCII       PEDS        4.00        
   -1
TE110A_072_130K_BG.ASC
20/05/14
15:07:00.00
20/05/14
15:07:00.00
Administrator
TE110A.Thursday, May 14 2020, 003.
1000.000000
#HDR
-1
-1
#GR
cm-1
EGY
1.0
0.0
6000.000000
-2.000000
2501
8
105.114303
11.020318
#DATA
6000.000000	16.258381
5998.000000	16.289831
5996.000000	16.321249
5994.000000	16.353732
5992.000000	16.386364
5990.000000	16.418819
5988.000000	16.450184
5986.000000	16.482378
5984.000000	16.514815
5982.000000	16.548444
5980.000000	16.581419
5978.000000	16.613501
5976.000000	16.643865
5974.000000	16.674868
5972.000000	16.707885
5970.000000	16.742311
5968.000000	16.776604
5966.000000	16.810118
5964.000000	16.842170
5962.000000	16.875501
5960.000000	16.908827
5958.000000	16.942732
5956.000000	16.976479
5954.000000	17.010181
5952.000000	17.043695
5950.000000	17.077221
5948.000000	17.109791
5946.000000	17.142378
5944.000000	17.175326
5942.000000	17.208225
5940.000000	17.241828
5938.000000	17.275086
5936.000000	17.307291
5934.000000	17.339783
5932.000000	17.372117
5930.000000	17.405201
5928.000000	17.438226
5926.000000	17.472346
5924.000000	17.506520
5922.000000	17.541567
5920.000000	17.575879
5918.000000	17.610530
5916.000000	17.645364
5914.000000	17.680636
5912.000000	17.715793
5910.000000	17.752244
5908.000000	17.789244
5906.000000	17.826706
5904.000000	17.862212
5902.000000	17.897262
5900.000000	17.931985
5898.000000	17.967944
5896.000000	18.003818
5894.000000	18.039323
5892.000000	18.073760
5890.000000	18.107632
5888.000000	18.142199
5886.000000	18.177767
5884.000000	18.213298
5882.000000	18.248349
5880.000000	18.283014
5878.000000	18.317935
5876.000000	18.352349
5874.000000	18.387474
5872.000000	18.422688
5870.000000	18.459142
5868.000000	18.496243
5866.000000	18.534360
5864.000000	18.571384
5862.000000	18.607231
5860.000000	18.641996
5858.000000	18.678996
5856.000000	18.715878
5854.000000	18.753253
5852.000000	18.790422
5850.000000	18.828975
5848.000000	18.867163
5846.000000	18.905567
5844.000000	18.943880
5842.000000	18.983876
5840.000000	19.023561
5838.000000	19.062612
5836.000000	19.101819
5834.000000	19.143246
5832.000000	19.184850
5830.000000	19.226314
5828.000000	19.266695
5826.000000	19.307547
5824.000000	19.347432
5822.000000	19.387710
5820.000000	19.426819
5818.000000	19.467147
5816.000000	19.506861
5814.000000	19.546820
5812.000000	19.586135
5810.000000	19.625920
5808.000000	19.664833
5806.000000	19.704452
5804.000000	19.743438
5802.000000	19.783031
5800.000000	19.823229
5798.000000	19.863383
5796.000000	19.902866
5794.000000	19.942728
5792.000000	19.983545
5790.000000	20.025017
5788.000000	20.065060
5786.000000	20.104798
5784.000000	20.144342
5782.000000	20.185705
5780.000000	20.225809
5778.000000	20.266282
5776.000000	20.307060
5774.000000	20.348952
5772.000000	20.389906
5770.000000	20.430036
5768.000000	20.469726
5766.000000	20.510755
5764.000000	20.552180
5762.000000	20.594167
5760.000000	20.635522
5758.000000	20.676484
5756.000000	20.717048
5754.000000	20.757888
5752.000000	20.798268
5750.000000	20.838135
5748.000000	20.876937
5746.000000	20.917128
5744.000000	20.957313
5742.000000	20.998387
5740.000000	21.038256
5738.000000	21.078299
5736.000000	21.117919
5734.000000	21.158032
5732.000000	21.197641
5730.000000	21.237399
5728.000000	21.277323
5726.000000	21.318157
5724.000000	21.357917
5722.000000	21.398421
5720.000000	21.439447
5718.000000	21.482907
5716.000000	21.525926
5714.000000	21.568842
5712.000000	21.610938
5710.000000	21.653388
5708.000000	21.695593
5706.000000	21.738476
5704.000000	21.781392
5702.000000	21.824497
5700.000000	21.866942
5698.000000	21.910456
5696.000000	21.954186
5694.000000	21.999261
5692.000000	22.043782
5690.000000	22.088303
5688.000000	22.132669
5686.000000	22.177588
5684.000000	22.221968
5682.000000	22.266176
5680.000000	22.309743
5678.000000	22.354457
5676.000000	22.398308
5674.000000	22.442687
5672.000000	22.486962
5670.000000	22.531574
5668.000000	22.575995
5666.000000	22.620440
5664.000000	22.665003
5662.000000	22.710322
5660.000000	22.755252
5658.000000	22.800282
5656.000000	22.843746
5654.000000	22.887632
5652.000000	22.931536
5650.000000	22.976937
5648.000000	23.021954
5646.000000	23.067303
5644.000000	23.111584
5642.000000	23.155978
5640.000000	23.199661
5638.000000	23.243619
5636.000000	23.287750
5634.000000	23.332701
5632.000000	23.377340
5630.000000	23.422102
5628.000000	23.466649
5626.000000	23.512186
5624.000000	23.556049
5622.000000	23.599689
5620.000000	23.643291
5618.000000	23.688127
5616.000000	23.732768
5614.000000	23.777294
5612.000000	23.821608
5610.000000	23.866807
5608.000000	23.911949
5606.000000	23.957486
5604.000000	24.002149
5602.000000	24.046989
5600.000000	24.091137
5598.000000	24.136341
5596.000000	24.181888
5594.000000	24.228682
5592.000000	24.274994
5590.000000	24.320904
5588.000000	24.366660
5586.000000	24.412960
5584.000000	24.458533
5582.000000	24.504208
5580.000000	24.549950
5578.000000	24.596512
5576.000000	24.642678
5574.000000	24.689472
5572.000000	24.736144
5570.000000	24.783116
5568.000000	24.829142
5566.000000	24.876035
5564.000000	24.923197
5562.000000	24.970779
5560.000000	25.017086
5558.000000	25.063247
5556.000000	25.108859
5554.000000	25.155167
5552.000000	25.200593
5550.000000	25.247197
5548.000000	25.294753
5546.000000	25.343816
5544.000000	25.391045
5542.000000	25.437184
5540.000000	25.481594
5538.000000	25.527639
5536.000000	25.574270
5534.000000	25.622290
5532.000000	25.669342
5530.000000	25.715872
5528.000000	25.761714
5526.000000	25.806881
5524.000000	25.852002
5522.000000	25.898359
5520.000000	25.946385
5518.000000	25.995107
5516.000000	26.042514
5514.000000	26.089949
5512.000000	26.134716
5510.000000	26.177561
5508.000000	26.220998
5506.000000	26.269644
5504.000000	26.320782
5502.000000	26.370664
5500.000000	26.417662
5498.000000	26.462023
5496.000000	26.501413
5494.000000	26.541265
5492.000000	26.585242
5490.000000	26.636588
5488.000000	26.691604
5486.000000	26.747968
5484.000000	26.802905
5482.000000	26.853875
5480.000000	26.895953
5478.000000	26.930129
5476.000000	26.969034
5474.000000	27.021194
5472.000000	27.079128
5470.000000	27.131041
5468.000000	27.176993
5466.000000	27.222465
5464.000000	27.265382
5462.000000	27.309982
5460.000000	27.360319
5458.000000	27.417092
5456.000000	27.473657
5454.000000	27.523391
5452.000000	27.565447
5450.000000	27.601104
5448.000000	27.636743
5446.000000	27.679809
5444.000000	27.726623
5442.000000	27.780791
5440.000000	27.834779
5438.000000	27.884099
5436.000000	27.929581
5434.000000	27.975050
5432.000000	28.019450
5430.000000	28.064994
5428.000000	28.118126
5426.000000	28.183048
5424.000000	28.246169
5422.000000	28.302223
5420.000000	28.350990
5418.000000	28.385775
5416.000000	28.408752
5414.000000	28.436673
5412.000000	28.483403
5410.000000	28.548811
5408.000000	28.616718
5406.000000	28.679337
5404.000000	28.733660
5402.000000	28.784154
5400.000000	28.829460
5398.000000	28.865575
5396.000000	28.898141
5394.000000	28.944329
5392.000000	29.005553
5390.000000	29.065030
5388.000000	29.110348
5386.000000	29.156101
5384.000000	29.212161
5382.000000	29.269892
5380.000000	29.310692
5378.000000	29.345514
5376.000000	29.391165
5374.000000	29.455616
5372.000000	29.522794
5370.000000	29.582220
5368.000000	29.631709
5366.000000	29.677302
5364.000000	29.724400
5362.000000	29.777060
5360.000000	29.830853
5358.000000	29.874503
5356.000000	29.905150
5354.000000	29.941187
5352.000000	29.991741
5350.000000	30.047924
5348.000000	30.087149
5346.000000	30.122529
5344.000000	30.169098
5342.000000	30.220369
5340.000000	30.267235
5338.000000	30.319922
5336.000000	30.386398
5334.000000	30.453928
5332.000000	30.507571
5330.000000	30.552191
5328.000000	30.599181
5326.000000	30.655890
5324.000000	30.719103
5322.000000	30.778014
5320.000000	30.828097
5318.000000	30.876342
5316.000000	30.926394
5314.000000	30.979132
5312.000000	31.026823
5310.000000	31.067540
5308.000000	31.110053
5306.000000	31.162231
5304.000000	31.220176
5302.000000	31.275652
5300.000000	31.328341
5298.000000	31.382718
5296.000000	31.434421
5294.000000	31.477599
5292.000000	31.516498
5290.000000	31.562827
5288.000000	31.616973
5286.000000	31.673493
5284.000000	31.726378
5282.000000	31.780504
5280.000000	31.836218
5278.000000	31.893476
5276.000000	31.948713
5274.000000	32.000067
5272.000000	32.046869
5270.000000	32.091758
5268.000000	32.129992
5266.000000	32.165234
5264.000000	32.207991
5262.000000	32.268812
5260.000000	32.335315
5258.000000	32.388485
5256.000000	32.433456
5254.000000	32.484620
5252.000000	32.535588
5250.000000	32.578261
5248.000000	32.619548
5246.000000	32.673496
5244.000000	32.738400
5242.000000	32.804720
5240.000000	32.867503
5238.000000	32.923394
5236.000000	32.972360
5234.000000	33.018078
5232.000000	33.065346
5230.000000	33.113320
5228.000000	33.155323
5226.000000	33.199546
5224.000000	33.255402
5222.000000	33.318274
5220.000000	33.374823
5218.000000	33.427621
5216.000000	33.483508
5214.000000	33.539445
5212.000000	33.583306
5210.000000	33.613813
5208.000000	33.646585
5206.000000	33.702163
5204.000000	33.775046
5202.000000	33.845193
5200.000000	33.899717
5198.000000	33.949413
5196.000000	34.003444
5194.000000	34.062272
5192.000000	34.117668
5190.000000	34.168437
5188.000000	34.215392
5186.000000	34.265513
5184.000000	34.320455
5182.000000	34.379241
5180.000000	34.435643
5178.000000	34.491365
5176.000000	34.547611
5174.000000	34.602380
5172.000000	34.654741
5170.000000	34.708482
5168.000000	34.762865
5166.000000	34.815756
5164.000000	34.867471
5162.000000	34.921319
5160.000000	34.974503
5158.000000	35.027778
5156.000000	35.082496
5154.000000	35.139579
5152.000000	35.195472
5150.000000	35.250403
5148.000000	35.304583
5146.000000	35.357619
5144.000000	35.409095
5142.000000	35.462417
5140.000000	35.517844
5138.000000	35.572924
5136.000000	35.625270
5134.000000	35.678842
5132.000000	35.733744
5130.000000	35.789080
5128.000000	35.842740
5126.000000	35.896724
5124.000000	35.949744
5122.000000	36.002177
5120.000000	36.054230
5118.000000	36.108542
5116.000000	36.163297
5114.000000	36.218036
5112.000000	36.271623
5110.000000	36.326552
5108.000000	36.381335
5106.000000	36.436704
5104.000000	36.491645
5102.000000	36.547050
5100.000000	36.601077
5098.000000	36.655980
5096.000000	36.711278
5094.000000	36.767534
5092.000000	36.823353
5090.000000	36.880790
5088.000000	36.937926
5086.000000	36.994968
5084.000000	37.051491
5082.000000	37.107988
5080.000000	37.162844
5078.000000	37.217901
5076.000000	37.273319
5074.000000	37.330532
5072.000000	37.387576
5070.000000	37.445523
5068.000000	37.500832
5066.000000	37.555438
5064.000000	37.610151
5062.000000	37.667077
5060.000000	37.723135
5058.000000	37.779052
5056.000000	37.834370
5054.000000	37.890488
5052.000000	37.945616
5050.000000	38.000714
5048.000000	38.055360
5046.000000	38.111388
5044.000000	38.167727
5042.000000	38.224443
5040.000000	38.280424
5038.000000	38.336583
5036.000000	38.390744
5034.000000	38.445395
5032.000000	38.501120
5030.000000	38.558572
5028.000000	38.614688
5026.000000	38.670587
5024.000000	38.726128
5022.000000	38.782161
5020.000000	38.837276
5018.000000	38.892954
5016.000000	38.948383
5014.000000	39.005155
5012.000000	39.061216
5010.000000	39.117404
5008.000000	39.173759
5006.000000	39.231367
5004.000000	39.287437
5002.000000	39.343829
5000.000000	39.401036
4998.000000	39.459975
4996.000000	39.517954
4994.000000	39.576611
4992.000000	39.633926
4990.000000	39.690688
4988.000000	39.746870
4986.000000	39.805001
4984.000000	39.863927
4982.000000	39.922953
4980.000000	39.980624
4978.000000	40.038148
4976.000000	40.095302
4974.000000	40.153214
4972.000000	40.210527
4970.000000	40.268390
4968.000000	40.326278
4966.000000	40.384598
4964.000000	40.441569
4962.000000	40.498092
4960.000000	40.553939
4958.000000	40.610742
4956.000000	40.667705
4954.000000	40.725477
4952.000000	40.782557
4950.000000	40.839827
4948.000000	40.896243
4946.000000	40.953081
4944.000000	41.009726
4942.000000	41.066894
4940.000000	41.123294
4938.000000	41.179236
4936.000000	41.234147
4934.000000	41.290060
4932.000000	41.346586
4930.000000	41.404007
4928.000000	41.460311
4926.000000	41.515930
4924.000000	41.571439
4922.000000	41.629098
4920.000000	41.686878
4918.000000	41.744559
4916.000000	41.801574
4914.000000	41.860155
4912.000000	41.917690
4910.000000	41.974631
4908.000000	42.030840
4906.000000	42.089221
4904.000000	42.147759
4902.000000	42.206971
4900.000000	42.265760
4898.000000	42.325176
4896.000000	42.384267
4894.000000	42.443625
4892.000000	42.502290
4890.000000	42.561601
4888.000000	42.620657
4886.000000	42.679297
4884.000000	42.737150
4882.000000	42.796598
4880.000000	42.856081
4878.000000	42.914931
4876.000000	42.973814
4874.000000	43.034354
4872.000000	43.093047
4870.000000	43.150440
4868.000000	43.208230
4866.000000	43.267529
4864.000000	43.325093
4862.000000	43.382831
4860.000000	43.440268
4858.000000	43.497942
4856.000000	43.555043
4854.000000	43.613504
4852.000000	43.672185
4850.000000	43.731060
4848.000000	43.788486
4846.000000	43.846331
4844.000000	43.904183
4842.000000	43.962099
4840.000000	44.018713
4838.000000	44.076661
4836.000000	44.133620
4834.000000	44.190161
4832.000000	44.246957
4830.000000	44.305461
4828.000000	44.362853
4826.000000	44.420469
4824.000000	44.477628
4822.000000	44.535311
4820.000000	44.593335
4818.000000	44.653889
4816.000000	44.713726
4814.000000	44.772118
4812.000000	44.829590
4810.000000	44.888911
4808.000000	44.947670
4806.000000	45.006821
4804.000000	45.066439
4802.000000	45.127712
4800.000000	45.188163
4798.000000	45.249394
4796.000000	45.309658
4794.000000	45.370030
4792.000000	45.429782
4790.000000	45.490903
4788.000000	45.550469
4786.000000	45.609050
4784.000000	45.667480
4782.000000	45.728295
4780.000000	45.788874
4778.000000	45.849079
4776.000000	45.908094
4774.000000	45.968226
4772.000000	46.027829
4770.000000	46.087761
4768.000000	46.147077
4766.000000	46.206562
4764.000000	46.264645
4762.000000	46.323227
4760.000000	46.381395
4758.000000	46.440033
4756.000000	46.497927
4754.000000	46.556457
4752.000000	46.614932
4750.000000	46.674661
4748.000000	46.732811
4746.000000	46.790345
4744.000000	46.847667
4742.000000	46.905837
4740.000000	46.962945
4738.000000	47.020971
4736.000000	47.079377
4734.000000	47.138600
4732.000000	47.196749
4730.000000	47.255223
4728.000000	47.313345
4726.000000	47.372922
4724.000000	47.432435
4722.000000	47.491862
4720.000000	47.551040
4718.000000	47.612602
4716.000000	47.675111
4714.000000	47.736799
4712.000000	47.797022
4710.000000	47.859264
4708.000000	47.922273
4706.000000	47.985695
4704.000000	48.048597
4702.000000	48.112739
4700.000000	48.176289
4698.000000	48.239553
4696.000000	48.300501
4694.000000	48.361035
4692.000000	48.421879
4690.000000	48.483901
4688.000000	48.545303
4686.000000	48.607204
4684.000000	48.668219
4682.000000	48.728543
4680.000000	48.787801
4678.000000	48.848709
4676.000000	48.910492
4674.000000	48.972611
4672.000000	49.033483
4670.000000	49.095400
4668.000000	49.156963
4666.000000	49.218145
4664.000000	49.278998
4662.000000	49.340807
4660.000000	49.401038
4658.000000	49.462277
4656.000000	49.524804
4654.000000	49.587124
4652.000000	49.646290
4650.000000	49.705715
4648.000000	49.765126
4646.000000	49.826334
4644.000000	49.888860
4642.000000	49.952308
4640.000000	50.013262
4638.000000	50.073809
4636.000000	50.133464
4634.000000	50.194256
4632.000000	50.255662
4630.000000	50.317566
4628.000000	50.378029
4626.000000	50.440048
4624.000000	50.502279
4622.000000	50.564827
4620.000000	50.626577
4618.000000	50.688537
4616.000000	50.750093
4614.000000	50.814195
4612.000000	50.879370
4610.000000	50.944654
4608.000000	51.007771
4606.000000	51.071829
4604.000000	51.136837
4602.000000	51.202650
4600.000000	51.267022
4598.000000	51.332257
4596.000000	51.397088
4594.000000	51.462236
4592.000000	51.526537
4590.000000	51.591387
4588.000000	51.655502
4586.000000	51.719744
4584.000000	51.783024
4582.000000	51.847663
4580.000000	51.912568
4578.000000	51.977051
4576.000000	52.039370
4574.000000	52.103007
4572.000000	52.166738
4570.000000	52.230257
4568.000000	52.293172
4566.000000	52.357710
4564.000000	52.421878
4562.000000	52.486160
4560.000000	52.548463
4558.000000	52.610446
4556.000000	52.673143
4554.000000	52.737351
4552.000000	52.799662
4550.000000	52.861262
4548.000000	52.923783
4546.000000	52.989262
4544.000000	53.053608
4542.000000	53.115613
4540.000000	53.175992
4538.000000	53.238256
4536.000000	53.300367
4534.000000	53.363025
4532.000000	53.426139
4530.000000	53.490579
4528.000000	53.553596
4526.000000	53.616519
4524.000000	53.679568
4522.000000	53.744381
4520.000000	53.809573
4518.000000	53.875674
4516.000000	53.939877
4514.000000	54.003717
4512.000000	54.068638
4510.000000	54.134888
4508.000000	54.199474
4506.000000	54.265008
4504.000000	54.331280
4502.000000	54.397283
4500.000000	54.462213
4498.000000	54.528276
4496.000000	54.593591
4494.000000	54.658641
4492.000000	54.723190
4490.000000	54.788284
4488.000000	54.852777
4486.000000	54.918510
4484.000000	54.983598
4482.000000	55.048082
4480.000000	55.111486
4478.000000	55.176362
4476.000000	55.241520
4474.000000	55.306613
4472.000000	55.369837
4470.000000	55.432966
4468.000000	55.495066
4466.000000	55.557559
4464.000000	55.620118
4462.000000	55.682786
4460.000000	55.743771
4458.000000	55.805594
4456.000000	55.868537
4454.000000	55.932756
4452.000000	55.995720
4450.000000	56.059142
4448.000000	56.122237
4446.000000	56.184337
4444.000000	56.244667
4442.000000	56.306787
4440.000000	56.369850
4438.000000	56.433887
4436.000000	56.496513
4434.000000	56.558861
4432.000000	56.620896
4430.000000	56.684171
4428.000000	56.747638
4426.000000	56.812944
4424.000000	56.876424
4422.000000	56.938217
4420.000000	57.000889
4418.000000	57.066683
4416.000000	57.132246
4414.000000	57.197652
4412.000000	57.261951
4410.000000	57.326653
4408.000000	57.390979
4406.000000	57.455247
4404.000000	57.518438
4402.000000	57.582813
4400.000000	57.647745
4398.000000	57.713094
4396.000000	57.777301
4394.000000	57.841242
4392.000000	57.903369
4390.000000	57.964924
4388.000000	58.025561
4386.000000	58.087999
4384.000000	58.151093
4382.000000	58.213716
4380.000000	58.274053
4378.000000	58.334208
4376.000000	58.394509
4374.000000	58.456805
4372.000000	58.517917
4370.000000	58.577841
4368.000000	58.636904
4366.000000	58.696695
4364.000000	58.756417
4362.000000	58.818332
4360.000000	58.880933
4358.000000	58.943418
4356.000000	59.005259
4354.000000	59.068682
4352.000000	59.132189
4350.000000	59.196791
4348.000000	59.261189
4346.000000	59.325185
4344.000000	59.388126
4342.000000	59.451290
4340.000000	59.513710
4338.000000	59.577564
4336.000000	59.641186
4334.000000	59.704838
4332.000000	59.768632
4330.000000	59.833815
4328.000000	59.898841
4326.000000	59.964826
4324.000000	60.030212
4322.000000	60.097360
4320.000000	60.165585
4318.000000	60.233890
4316.000000	60.300769
4314.000000	60.368733
4312.000000	60.436147
4310.000000	60.503776
4308.000000	60.570315
4306.000000	60.636759
4304.000000	60.702824
4302.000000	60.769614
4300.000000	60.835568
4298.000000	60.901735
4296.000000	60.966325
4294.000000	61.031018
4292.000000	61.096086
4290.000000	61.161264
4288.000000	61.224020
4286.000000	61.286072
4284.000000	61.347345
4282.000000	61.408081
4280.000000	61.467220
4278.000000	61.527453
4276.000000	61.587106
4274.000000	61.645842
4272.000000	61.704081
4270.000000	61.764094
4268.000000	61.823806
4266.000000	61.884289
4264.000000	61.945362
4262.000000	62.008514
4260.000000	62.072381
4258.000000	62.137024
4256.000000	62.200886
4254.000000	62.264665
4252.000000	62.326435
4250.000000	62.388873
4248.000000	62.452853
4246.000000	62.518598
4244.000000	62.583203
4242.000000	62.647368
4240.000000	62.711600
4238.000000	62.777064
4236.000000	62.842004
4234.000000	62.908272
4232.000000	62.973906
4230.000000	63.038135
4228.000000	63.100968
4226.000000	63.164766
4224.000000	63.228670
4222.000000	63.293813
4220.000000	63.358373
4218.000000	63.422666
4216.000000	63.487085
4214.000000	63.553061
4212.000000	63.618232
4210.000000	63.683711
4208.000000	63.749705
4206.000000	63.816941
4204.000000	63.883836
4202.000000	63.951401
4200.000000	64.019667
4198.000000	64.089994
4196.000000	64.159501
4194.000000	64.227725
4192.000000	64.294728
4190.000000	64.363337
4188.000000	64.431959
4186.000000	64.499969
4184.000000	64.566864
4182.000000	64.633834
4180.000000	64.698822
4178.000000	64.763991
4176.000000	64.829283
4174.000000	64.894431
4172.000000	64.958519
4170.000000	65.023981
4168.000000	65.088914
4166.000000	65.153051
4164.000000	65.216359
4162.000000	65.280717
4160.000000	65.345121
4158.000000	65.410351
4156.000000	65.474980
4154.000000	65.539255
4152.000000	65.603006
4150.000000	65.668424
4148.000000	65.734671
4146.000000	65.801144
4144.000000	65.866153
4142.000000	65.931823
4140.000000	65.997288
4138.000000	66.062397
4136.000000	66.127325
4134.000000	66.193815
4132.000000	66.260301
4130.000000	66.326891
4128.000000	66.392773
4126.000000	66.459787
4124.000000	66.526392
4122.000000	66.592590
4120.000000	66.658420
4118.000000	66.724856
4116.000000	66.791115
4114.000000	66.858570
4112.000000	66.925039
4110.000000	66.989807
4108.000000	67.051614
4106.000000	67.114055
4104.000000	67.179252
4102.000000	67.245517
4100.000000	67.309393
4098.000000	67.373486
4096.000000	67.437701
4094.000000	67.502759
4092.000000	67.568007
4090.000000	67.634805
4088.000000	67.703472
4086.000000	67.774512
4084.000000	67.844254
4082.000000	67.912165
4080.000000	67.979380
4078.000000	68.048035
4076.000000	68.115441
4074.000000	68.181762
4072.000000	68.246789
4070.000000	68.312577
4068.000000	68.378516
4066.000000	68.443906
4064.000000	68.507889
4062.000000	68.571929
4060.000000	68.635811
4058.000000	68.702409
4056.000000	68.769979
4054.000000	68.836136
4052.000000	68.899014
4050.000000	68.961733
4048.000000	69.022873
4046.000000	69.082727
4044.000000	69.147282
4042.000000	69.218547
4040.000000	69.288972
4038.000000	69.357155
4036.000000	69.423862
4034.000000	69.490657
4032.000000	69.557179
4030.000000	69.624985
4028.000000	69.690609
4026.000000	69.755443
4024.000000	69.824041
4022.000000	69.893707
4020.000000	69.960677
4018.000000	70.029607
4016.000000	70.098748
4014.000000	70.167375
4012.000000	70.234604
4010.000000	70.300048
4008.000000	70.367553
4006.000000	70.441012
4004.000000	70.514622
4002.000000	70.584523
4000.000000	70.649377
3998.000000	70.710385
3996.000000	70.770692
3994.000000	70.835263
3992.000000	70.901621
3990.000000	70.969413
3988.000000	71.037884
3986.000000	71.103729
3984.000000	71.163960
3982.000000	71.224642
3980.000000	71.287808
3978.000000	71.346764
3976.000000	71.400683
3974.000000	71.460317
3972.000000	71.525680
3970.000000	71.593254
3968.000000	71.661470
3966.000000	71.724347
3964.000000	71.774429
3962.000000	71.825902
3960.000000	71.890184
3958.000000	71.958845
3956.000000	72.022622
3954.000000	72.073925
3952.000000	72.100911
3950.000000	72.124683
3948.000000	72.182724
3946.000000	72.250826
3944.000000	72.296119
3942.000000	72.372692
3940.000000	72.489035
3938.000000	72.582145
3936.000000	72.610750
3934.000000	72.591090
3932.000000	72.617364
3930.000000	72.730261
3928.000000	72.828805
3926.000000	72.870460
3924.000000	72.922331
3922.000000	72.973526
3920.000000	72.968960
3918.000000	72.990016
3916.000000	73.135821
3914.000000	73.331269
3912.000000	73.461658
3910.000000	73.512406
3908.000000	73.427614
3906.000000	73.179927
3904.000000	72.967797
3902.000000	72.974380
3900.000000	73.194284
3898.000000	73.544240
3896.000000	73.799464
3894.000000	73.766404
3892.000000	73.665074
3890.000000	73.735277
3888.000000	73.722031
3886.000000	73.645000
3884.000000	73.785357
3882.000000	73.950029
3880.000000	74.090142
3878.000000	74.275154
3876.000000	74.315814
3874.000000	74.182678
3872.000000	73.926244
3870.000000	73.831747
3868.000000	74.050346
3866.000000	74.228804
3864.000000	74.353060
3862.000000	74.597511
3860.000000	74.799183
3858.000000	74.521882
3856.000000	73.528374
3854.000000	72.826256
3852.000000	73.431454
3850.000000	74.593135
3848.000000	75.238549
3846.000000	75.324298
3844.000000	75.206933
3842.000000	74.988474
3840.000000	74.582250
3838.000000	74.381045
3836.000000	74.732899
3834.000000	75.207904
3832.000000	75.497674
3830.000000	75.710446
3828.000000	75.841480
3826.000000	75.856152
3824.000000	75.628618
3822.000000	75.341182
3820.000000	75.343544
3818.000000	75.325924
3816.000000	75.391218
3814.000000	75.930111
3812.000000	76.410758
3810.000000	76.339856
3808.000000	76.037058
3806.000000	75.998922
3804.000000	75.907318
3802.000000	75.708233
3800.000000	75.995614
3798.000000	76.484099
3796.000000	76.781006
3794.000000	77.017124
3792.000000	77.181961
3790.000000	77.256200
3788.000000	77.280999
3786.000000	77.293288
3784.000000	77.324207
3782.000000	77.311968
3780.000000	77.292266
3778.000000	77.418412
3776.000000	77.603849
3774.000000	77.646363
3772.000000	77.503204
3770.000000	77.400968
3768.000000	77.484636
3766.000000	77.639420
3764.000000	77.782262
3762.000000	77.794121
3760.000000	77.722600
3758.000000	77.762692
3756.000000	77.670027
3754.000000	77.083009
3752.000000	76.432542
3750.000000	76.437854
3748.000000	76.690964
3746.000000	76.470602
3744.000000	76.625808
3742.000000	77.551294
3740.000000	78.052067
3738.000000	77.802311
3736.000000	77.547512
3734.000000	77.656118
3732.000000	78.035078
3730.000000	78.479354
3728.000000	78.674705
3726.000000	78.698533
3724.000000	78.770064
3722.000000	78.894679
3720.000000	79.056135
3718.000000	79.196308
3716.000000	79.132667
3714.000000	78.761273
3712.000000	78.509693
3710.000000	78.759914
3708.000000	79.231404
3706.000000	79.517034
3704.000000	79.519326
3702.000000	79.488795
3700.000000	79.636760
3698.000000	79.812746
3696.000000	79.865457
3694.000000	79.729108
3692.000000	79.307823
3690.000000	78.828182
3688.000000	78.943035
3686.000000	79.618959
3684.000000	80.088206
3682.000000	80.143142
3680.000000	79.904747
3678.000000	79.311925
3676.000000	78.870496
3674.000000	79.030935
3672.000000	79.159377
3670.000000	79.288818
3668.000000	79.853569
3666.000000	80.389074
3664.000000	80.592523
3662.000000	80.625475
3660.000000	80.522350
3658.000000	80.259910
3656.000000	80.158878
3654.000000	80.179567
3652.000000	79.791859
3650.000000	79.332213
3648.000000	79.535263
3646.000000	80.185977
3644.000000	80.651254
3642.000000	80.810471
3640.000000	80.852273
3638.000000	80.857496
3636.000000	80.814446
3634.000000	80.688929
3632.000000	80.271544
3630.000000	79.733198
3628.000000	79.858988
3626.000000	80.500342
3624.000000	80.822100
3622.000000	80.651308
3620.000000	80.391899
3618.000000	80.432305
3616.000000	80.582655
3614.000000	80.566867
3612.000000	80.468632
3610.000000	80.400477
3608.000000	80.517940
3606.000000	80.790065
3604.000000	80.944366
3602.000000	80.934807
3600.000000	80.899454
3598.000000	80.868057
3596.000000	80.825493
3594.000000	80.836324
3592.000000	80.820784
3590.000000	80.621387
3588.000000	80.457126
3586.000000	80.597693
3584.000000	80.845001
3582.000000	80.957487
3580.000000	80.968697
3578.000000	80.965416
3576.000000	80.965996
3574.000000	80.965733
3572.000000	80.904398
3570.000000	80.690941
3568.000000	80.475110
3566.000000	80.522508
3564.000000	80.724799
3562.000000	80.843227
3560.000000	80.881627
3558.000000	80.905597
3556.000000	80.895887
3554.000000	80.846480
3552.000000	80.818633
3550.000000	80.803931
3548.000000	80.736434
3546.000000	80.684542
3544.000000	80.726148
3542.000000	80.798245
3540.000000	80.819245
3538.000000	80.789281
3536.000000	80.763629
3534.000000	80.757822
3532.000000	80.723184
3530.000000	80.652492
3528.000000	80.587349
3526.000000	80.541536
3524.000000	80.508357
3522.000000	80.503016
3520.000000	80.506234
3518.000000	80.490990
3516.000000	80.461898
3514.000000	80.417104
3512.000000	80.352583
3510.000000	80.291492
3508.000000	80.253596
3506.000000	80.194755
3504.000000	80.108180
3502.000000	80.061942
3500.000000	80.047631
3498.000000	80.008345
3496.000000	79.953057
3494.000000	79.907657
3492.000000	79.860644
3490.000000	79.800530
3488.000000	79.744038
3486.000000	79.703009
3484.000000	79.658067
3482.000000	79.615735
3480.000000	79.603965
3478.000000	79.609753
3476.000000	79.610756
3474.000000	79.614428
3472.000000	79.624188
3470.000000	79.629909
3468.000000	79.639868
3466.000000	79.669490
3464.000000	79.708161
3462.000000	79.745499
3460.000000	79.786208
3458.000000	79.826740
3456.000000	79.862402
3454.000000	79.892989
3452.000000	79.913394
3450.000000	79.912327
3448.000000	79.905816
3446.000000	79.933953
3444.000000	79.988479
3442.000000	80.050910
3440.000000	80.126921
3438.000000	80.213044
3436.000000	80.311868
3434.000000	80.432298
3432.000000	80.570535
3430.000000	80.713369
3428.000000	80.856772
3426.000000	80.994149
3424.000000	81.112483
3422.000000	81.215059
3420.000000	81.324706
3418.000000	81.441214
3416.000000	81.541959
3414.000000	81.623073
3412.000000	81.695247
3410.000000	81.762151
3408.000000	81.823319
3406.000000	81.880379
3404.000000	81.930643
3402.000000	81.974330
3400.000000	82.027577
3398.000000	82.103110
3396.000000	82.185998
3394.000000	82.254359
3392.000000	82.319559
3390.000000	82.401898
3388.000000	82.482855
3386.000000	82.546659
3384.000000	82.606633
3382.000000	82.665843
3380.000000	82.719937
3378.000000	82.771603
3376.000000	82.822851
3374.000000	82.871049
3372.000000	82.908342
3370.000000	82.935684
3368.000000	82.973093
3366.000000	83.024891
3364.000000	83.079233
3362.000000	83.129891
3360.000000	83.177412
3358.000000	83.221476
3356.000000	83.263837
3354.000000	83.306846
3352.000000	83.345581
3350.000000	83.384246
3348.000000	83.431514
3346.000000	83.479245
3344.000000	83.520924
3342.000000	83.558615
3340.000000	83.592844
3338.000000	83.626114
3336.000000	83.668562
3334.000000	83.718330
3332.000000	83.764001
3330.000000	83.801446
3328.000000	83.834597
3326.000000	83.867342
3324.000000	83.905718
3322.000000	83.947955
3320.000000	83.988029
3318.000000	84.025369
3316.000000	84.060084
3314.000000	84.091660
3312.000000	84.120988
3310.000000	84.144647
3308.000000	84.166460
3306.000000	84.195587
3304.000000	84.242194
3302.000000	84.297099
3300.000000	84.340718
3298.000000	84.374502
3296.000000	84.405739
3294.000000	84.434300
3292.000000	84.466629
3290.000000	84.511091
3288.000000	84.559757
3286.000000	84.601698
3284.000000	84.640154
3282.000000	84.679086
3280.000000	84.716606
3278.000000	84.750363
3276.000000	84.782154
3274.000000	84.815841
3272.000000	84.853289
3270.000000	84.898921
3268.000000	84.951630
3266.000000	84.999447
3264.000000	85.044149
3262.000000	85.089323
3260.000000	85.133552
3258.000000	85.174708
3256.000000	85.215408
3254.000000	85.263148
3252.000000	85.317533
3250.000000	85.367217
3248.000000	85.409028
3246.000000	85.451771
3244.000000	85.505566
3242.000000	85.561484
3240.000000	85.613670
3238.000000	85.662912
3236.000000	85.706877
3234.000000	85.747264
3232.000000	85.797445
3230.000000	85.855783
3228.000000	85.911517
3226.000000	85.964903
3224.000000	86.015413
3222.000000	86.060220
3220.000000	86.104771
3218.000000	86.155266
3216.000000	86.205168
3214.000000	86.253553
3212.000000	86.305998
3210.000000	86.360918
3208.000000	86.421510
3206.000000	86.485880
3204.000000	86.553533
3202.000000	86.623119
3200.000000	86.691119
3198.000000	86.760532
3196.000000	86.837816
3194.000000	86.915493
3192.000000	86.988196
3190.000000	87.059947
3188.000000	87.131330
3186.000000	87.200192
3184.000000	87.272456
3182.000000	87.345914
3180.000000	87.413782
3178.000000	87.481962
3176.000000	87.559459
3174.000000	87.637696
3172.000000	87.712301
3170.000000	87.785194
3168.000000	87.858224
3166.000000	87.933008
3164.000000	88.010878
3162.000000	88.088993
3160.000000	88.167475
3158.000000	88.246949
3156.000000	88.324585
3154.000000	88.394413
3152.000000	88.465914
3150.000000	88.551286
3148.000000	88.637449
3146.000000	88.715522
3144.000000	88.790818
3142.000000	88.862427
3140.000000	88.931903
3138.000000	89.003422
3136.000000	89.075371
3134.000000	89.142092
3132.000000	89.211543
3130.000000	89.281775
3128.000000	89.347214
3126.000000	89.409788
3124.000000	89.467214
3122.000000	89.516257
3120.000000	89.563387
3118.000000	89.612719
3116.000000	89.669205
3114.000000	89.735083
3112.000000	89.799019
3110.000000	89.851096
3108.000000	89.904064
3106.000000	89.965229
3104.000000	90.025636
3102.000000	90.083064
3100.000000	90.147083
3098.000000	90.215128
3096.000000	90.281605
3094.000000	90.349830
3092.000000	90.416374
3090.000000	90.475898
3088.000000	90.534350
3086.000000	90.587467
3084.000000	90.632975
3082.000000	90.673545
3080.000000	90.709994
3078.000000	90.749866
3076.000000	90.796392
3074.000000	90.832984
3072.000000	90.854023
3070.000000	90.862355
3068.000000	90.865419
3066.000000	90.881000
3064.000000	90.920060
3062.000000	90.972977
3060.000000	91.028439
3058.000000	91.082728
3056.000000	91.143639
3054.000000	91.209947
3052.000000	91.269490
3050.000000	91.320116
3048.000000	91.370969
3046.000000	91.414744
3044.000000	91.445399
3042.000000	91.469776
3040.000000	91.497910
3038.000000	91.520331
3036.000000	91.528755
3034.000000	91.525332
3032.000000	91.513685
3030.000000	91.487116
3028.000000	91.427332
3026.000000	91.323108
3024.000000	91.195783
3022.000000	91.079753
3020.000000	91.015514
3018.000000	91.041670
3016.000000	91.178598
3014.000000	91.410600
3012.000000	91.695480
3010.000000	91.977143
3008.000000	92.210128
3006.000000	92.373298
3004.000000	92.485395
3002.000000	92.569169
3000.000000	92.629611
2998.000000	92.669985
2996.000000	92.700457
2994.000000	92.722128
2992.000000	92.735176
2990.000000	92.737282
2988.000000	92.723880
2986.000000	92.689847
2984.000000	92.634055
2982.000000	92.548907
2980.000000	92.428646
2978.000000	92.265319
2976.000000	92.040785
2974.000000	91.736926
2972.000000	91.345919
2970.000000	90.867224
2968.000000	90.343775
2966.000000	89.860322
2964.000000	89.505989
2962.000000	89.334979
2960.000000	89.349933
2958.000000	89.493101
2956.000000	89.686472
2954.000000	89.871290
2952.000000	90.016305
2950.000000	90.089678
2948.000000	90.055926
2946.000000	89.893574
2944.000000	89.602429
2942.000000	89.194369
2940.000000	88.705402
2938.000000	88.194593
2936.000000	87.724904
2934.000000	87.307547
2932.000000	86.912112
2930.000000	86.523888
2928.000000	86.197523
2926.000000	86.035020
2924.000000	86.141684
2922.000000	86.561044
2920.000000	87.236964
2918.000000	88.051483
2916.000000	88.899619
2914.000000	89.698896
2912.000000	90.390687
2910.000000	90.944995
2908.000000	91.377856
2906.000000	91.727303
2904.000000	92.030046
2902.000000	92.305793
2900.000000	92.563562
2898.000000	92.803483
2896.000000	93.029306
2894.000000	93.244347
2892.000000	93.449027
2890.000000	93.636729
2888.000000	93.800212
2886.000000	93.929689
2884.000000	94.019388
2882.000000	94.063457
2880.000000	94.062136
2878.000000	94.010014
2876.000000	93.899368
2874.000000	93.720674
2872.000000	93.468410
2870.000000	93.113808
2868.000000	92.632332
2866.000000	92.061426
2864.000000	91.521679
2862.000000	91.167224
2860.000000	91.091823
2858.000000	91.259004
2856.000000	91.560561
2854.000000	91.917964
2852.000000	92.331263
2850.000000	92.837280
2848.000000	93.440641
2846.000000	94.061447
2844.000000	94.604450
2842.000000	95.036147
2840.000000	95.374998
2838.000000	95.646223
2836.000000	95.870520
2834.000000	96.054033
2832.000000	96.210274
2830.000000	96.346733
2828.000000	96.468678
2826.000000	96.578512
2824.000000	96.680233
2822.000000	96.774750
2820.000000	96.863681
2818.000000	96.943219
2816.000000	97.015122
2814.000000	97.079229
2812.000000	97.137984
2810.000000	97.190693
2808.000000	97.241835
2806.000000	97.292003
2804.000000	97.339930
2802.000000	97.383187
2800.000000	97.426018
2798.000000	97.468659
2796.000000	97.512157
2794.000000	97.555609
2792.000000	97.603524
2790.000000	97.658604
2788.000000	97.728515
2786.000000	97.810324
2784.000000	97.896948
2782.000000	97.979858
2780.000000	98.056281
2778.000000	98.123091
2776.000000	98.183224
2774.000000	98.240449
2772.000000	98.298400
2770.000000	98.352016
2768.000000	98.403066
2766.000000	98.452238
2764.000000	98.501290
2762.000000	98.548617
2760.000000	98.595065
2758.000000	98.638933
2756.000000	98.682801
2754.000000	98.725196
2752.000000	98.766338
2750.000000	98.804288
2748.000000	98.842501
2746.000000	98.879681
2744.000000	98.916288
2742.000000	98.951026
2740.000000	98.986546
2738.000000	99.020492
2736.000000	99.056264
2734.000000	99.091248
2732.000000	99.126920
2730.000000	99.160427
2728.000000	99.193176
2726.000000	99.225765
2724.000000	99.260220
2722.000000	99.292270
2720.000000	99.324568
2718.000000	99.355609
2716.000000	99.386985
2714.000000	99.416063
2712.000000	99.442494
2710.000000	99.465613
2708.000000	99.490397
2706.000000	99.516150
2704.000000	99.547062
2702.000000	99.583387
2700.000000	99.627025
2698.000000	99.673911
2696.000000	99.722705
2694.000000	99.768258
2692.000000	99.812735
2690.000000	99.854859
2688.000000	99.896434
2686.000000	99.937143
2684.000000	99.977838
2682.000000	100.014727
2680.000000	100.050381
2678.000000	100.084062
2676.000000	100.118861
2674.000000	100.151212
2672.000000	100.181837
2670.000000	100.210951
2668.000000	100.241476
2666.000000	100.270319
2664.000000	100.299808
2662.000000	100.328210
2660.000000	100.358614
2658.000000	100.390355
2656.000000	100.424706
2654.000000	100.460098
2652.000000	100.499555
2650.000000	100.539904
2648.000000	100.580999
2646.000000	100.619656
2644.000000	100.658597
2642.000000	100.695672
2640.000000	100.732185
2638.000000	100.767384
2636.000000	100.803360
2634.000000	100.836076
2632.000000	100.867935
2630.000000	100.896571
2628.000000	100.925289
2626.000000	100.953934
2624.000000	100.982935
2622.000000	101.010344
2620.000000	101.039347
2618.000000	101.066711
2616.000000	101.093384
2614.000000	101.118049
2612.000000	101.143244
2610.000000	101.164440
2608.000000	101.184006
2606.000000	101.201629
2604.000000	101.217549
2602.000000	101.230125
2600.000000	101.242487
2598.000000	101.251840
2596.000000	101.261373
2594.000000	101.275273
2592.000000	101.300357
2590.000000	101.332700
2588.000000	101.374785
2586.000000	101.425667
2584.000000	101.485772
2582.000000	101.548484
2580.000000	101.610317
2578.000000	101.666960
2576.000000	101.721104
2574.000000	101.769447
2572.000000	101.812746
2570.000000	101.851663
2568.000000	101.891089
2566.000000	101.925696
2564.000000	101.958502
2562.000000	101.989047
2560.000000	102.019237
2558.000000	102.045962
2556.000000	102.073180
2554.000000	102.100162
2552.000000	102.127623
2550.000000	102.153021
2548.000000	102.180076
2546.000000	102.205630
2544.000000	102.231322
2542.000000	102.256309
2540.000000	102.283920
2538.000000	102.311437
2536.000000	102.339535
2534.000000	102.364633
2532.000000	102.391092
2530.000000	102.417037
2528.000000	102.443599
2526.000000	102.468014
2524.000000	102.492997
2522.000000	102.515942
2520.000000	102.540640
2518.000000	102.563884
2516.000000	102.587428
2514.000000	102.610943
2512.000000	102.635384
2510.000000	102.656506
2508.000000	102.677774
2506.000000	102.696671
2504.000000	102.717242
2502.000000	102.738958
2500.000000	102.763497
2498.000000	102.787706
2496.000000	102.814138
2494.000000	102.839778
2492.000000	102.866924
2490.000000	102.892866
2488.000000	102.920428
2486.000000	102.946599
2484.000000	102.972705
2482.000000	102.996897
2480.000000	103.022253
2478.000000	103.045639
2476.000000	103.068478
2474.000000	103.088965
2472.000000	103.110685
2470.000000	103.128374
2468.000000	103.146548
2466.000000	103.163392
2464.000000	103.179907
2462.000000	103.195254
2460.000000	103.212807
2458.000000	103.229208
2456.000000	103.246637
2454.000000	103.262367
2452.000000	103.279600
2450.000000	103.296182
2448.000000	103.314263
2446.000000	103.329985
2444.000000	103.346050
2442.000000	103.360290
2440.000000	103.375737
2438.000000	103.388335
2436.000000	103.402615
2434.000000	103.416101
2432.000000	103.430945
2430.000000	103.442724
2428.000000	103.453884
2426.000000	103.465247
2424.000000	103.481940
2422.000000	103.498022
2420.000000	103.513255
2418.000000	103.525558
2416.000000	103.538144
2414.000000	103.548687
2412.000000	103.560997
2410.000000	103.572001
2408.000000	103.585766
2406.000000	103.599169
2404.000000	103.613669
2402.000000	103.627095
2400.000000	103.644053
2398.000000	103.660322
2396.000000	103.678314
2394.000000	103.695734
2392.000000	103.713613
2390.000000	103.727433
2388.000000	103.739014
2386.000000	103.742220
2384.000000	103.733630
2382.000000	103.699390
2380.000000	103.631773
2378.000000	103.518198
2376.000000	103.357972
2374.000000	103.149993
2372.000000	102.909123
2370.000000	102.652259
2368.000000	102.409081
2366.000000	102.204187
2364.000000	102.068674
2362.000000	102.022379
2360.000000	102.079161
2358.000000	102.235573
2356.000000	102.487997
2354.000000	102.815061
2352.000000	103.181041
2350.000000	103.448069
2348.000000	103.436547
2346.000000	103.199497
2344.000000	102.946038
2342.000000	102.760835
2340.000000	102.655334
2338.000000	102.609433
2336.000000	102.608418
2334.000000	102.640684
2332.000000	102.704358
2330.000000	102.793132
2328.000000	102.904254
2326.000000	103.025475
2324.000000	103.152169
2322.000000	103.274386
2320.000000	103.394062
2318.000000	103.504310
2316.000000	103.602882
2314.000000	103.686578
2312.000000	103.761981
2310.000000	103.824676
2308.000000	103.877908
2306.000000	103.919335
2304.000000	103.955877
2302.000000	103.985194
2300.000000	104.011057
2298.000000	104.030767
2296.000000	104.049708
2294.000000	104.065020
2292.000000	104.080818
2290.000000	104.092509
2288.000000	104.104666
2286.000000	104.112680
2284.000000	104.118731
2282.000000	104.118681
2280.000000	104.117262
2278.000000	104.112361
2276.000000	104.109120
2274.000000	104.102633
2272.000000	104.097841
2270.000000	104.091441
2268.000000	104.088093
2266.000000	104.083006
2264.000000	104.079584
2262.000000	104.074534
2260.000000	104.072651
2258.000000	104.070435
2256.000000	104.071766
2254.000000	104.071927
2252.000000	104.075862
2250.000000	104.081554
2248.000000	104.091420
2246.000000	104.099295
2244.000000	104.109799
2242.000000	104.120963
2240.000000	104.135210
2238.000000	104.146987
2236.000000	104.160904
2234.000000	104.173331
2232.000000	104.188364
2230.000000	104.200944
2228.000000	104.214668
2226.000000	104.224116
2224.000000	104.234031
2222.000000	104.241587
2220.000000	104.251630
2218.000000	104.258112
2216.000000	104.265892
2214.000000	104.270298
2212.000000	104.276531
2210.000000	104.280181
2208.000000	104.284912
2206.000000	104.286590
2204.000000	104.291586
2202.000000	104.295930
2200.000000	104.302478
2198.000000	104.305075
2196.000000	104.308295
2194.000000	104.307911
2192.000000	104.310549
2190.000000	104.310372
2188.000000	104.310694
2186.000000	104.308562
2184.000000	104.309721
2182.000000	104.308339
2180.000000	104.309501
2178.000000	104.307845
2176.000000	104.305451
2174.000000	104.294163
2172.000000	104.270950
2170.000000	104.244327
2168.000000	104.256042
2166.000000	104.280354
2164.000000	104.290513
2162.000000	104.288611
2160.000000	104.287359
2158.000000	104.284717
2156.000000	104.286342
2154.000000	104.283019
2152.000000	104.280671
2150.000000	104.278334
2148.000000	104.279877
2146.000000	104.278960
2144.000000	104.280413
2142.000000	104.276563
2140.000000	104.272582
2138.000000	104.266966
2136.000000	104.266639
2134.000000	104.266029
2132.000000	104.267131
2130.000000	104.265410
2128.000000	104.264899
2126.000000	104.262433
2124.000000	104.262635
2122.000000	104.262250
2120.000000	104.265748
2118.000000	104.267437
2116.000000	104.270201
2114.000000	104.275978
2112.000000	104.288722
2110.000000	104.299553
2108.000000	104.311524
2106.000000	104.322706
2104.000000	104.337030
2102.000000	104.347466
2100.000000	104.358626
2098.000000	104.368592
2096.000000	104.383848
2094.000000	104.394987
2092.000000	104.404812
2090.000000	104.412837
2088.000000	104.433291
2086.000000	104.450350
2084.000000	104.468186
2082.000000	104.479888
2080.000000	104.496586
2078.000000	104.510619
2076.000000	104.528029
2074.000000	104.542711
2072.000000	104.563143
2070.000000	104.580768
2068.000000	104.595734
2066.000000	104.599129
2064.000000	104.621614
2062.000000	104.653598
2060.000000	104.680818
2058.000000	104.701597
2056.000000	104.725256
2054.000000	104.744702
2052.000000	104.766181
2050.000000	104.783953
2048.000000	104.805359
2046.000000	104.821441
2044.000000	104.834675
2042.000000	104.841742
2040.000000	104.864439
2038.000000	104.887573
2036.000000	104.905054
2034.000000	104.912740
2032.000000	104.913516
2030.000000	104.894812
2028.000000	104.904245
2026.000000	104.939379
2024.000000	104.961870
2022.000000	104.967489
2020.000000	104.962161
2018.000000	104.944932
2016.000000	104.971840
2014.000000	105.020273
2012.000000	105.048971
2010.000000	105.062219
2008.000000	105.078304
2006.000000	105.090806
2004.000000	105.102681
2002.000000	105.107372
2000.000000	105.112113
1998.000000	105.114303
1996.000000	105.112772
1994.000000	105.059611
1992.000000	105.012969
1990.000000	105.048691
1988.000000	105.089784
1986.000000	105.104386
1984.000000	105.107967
1982.000000	105.098336
1980.000000	105.087525
1978.000000	105.072029
1976.000000	105.057866
1974.000000	105.041792
1972.000000	105.024895
1970.000000	104.978156
1968.000000	104.906406
1966.000000	104.891759
1964.000000	104.911354
1962.000000	104.859313
1960.000000	104.738978
1958.000000	104.707264
1956.000000	104.787414
1954.000000	104.815084
1952.000000	104.799597
1950.000000	104.766008
1948.000000	104.736817
1946.000000	104.677504
1944.000000	104.563499
1942.000000	104.518083
1940.000000	104.611924
1938.000000	104.645887
1936.000000	104.627384
1934.000000	104.594301
1932.000000	104.570864
1930.000000	104.543029
1928.000000	104.516220
1926.000000	104.449233
1924.000000	104.334290
1922.000000	104.271042
1920.000000	104.156796
1918.000000	104.007932
1916.000000	104.135530
1914.000000	104.228087
1912.000000	104.166051
1910.000000	104.063770
1908.000000	104.029762
1906.000000	104.011881
1904.000000	103.976082
1902.000000	103.919894
1900.000000	103.875511
1898.000000	103.805414
1896.000000	103.726661
1894.000000	103.692697
1892.000000	103.633176
1890.000000	103.499952
1888.000000	103.550631
1886.000000	103.631082
1884.000000	103.636328
1882.000000	103.620940
1880.000000	103.605425
1878.000000	103.576925
1876.000000	103.559584
1874.000000	103.516724
1872.000000	103.341837
1870.000000	102.988034
1868.000000	102.953236
1866.000000	103.209844
1864.000000	103.345731
1862.000000	103.332968
1860.000000	103.299681
1858.000000	103.266608
1856.000000	103.249687
1854.000000	103.214487
1852.000000	103.176618
1850.000000	103.086264
1848.000000	102.907903
1846.000000	102.411731
1844.000000	102.110242
1842.000000	102.544989
1840.000000	102.843593
1838.000000	102.792312
1836.000000	102.742432
1834.000000	102.668136
1832.000000	102.364595
1830.000000	102.056514
1828.000000	102.132446
1826.000000	102.101124
1824.000000	102.128481
1822.000000	102.277138
1820.000000	102.267695
1818.000000	102.174495
1816.000000	102.116773
1814.000000	102.018042
1812.000000	101.828642
1810.000000	101.716302
1808.000000	101.724308
1806.000000	101.669094
1804.000000	101.476418
1802.000000	101.166629
1800.000000	101.024820
1798.000000	101.058882
1796.000000	100.924592
1794.000000	100.321185
1792.000000	99.994181
1790.000000	100.389000
1788.000000	100.610319
1786.000000	100.384809
1784.000000	100.239808
1782.000000	100.155444
1780.000000	100.057280
1778.000000	100.019687
1776.000000	99.707075
1774.000000	98.841889
1772.000000	98.414312
1770.000000	98.833882
1768.000000	99.079064
1766.000000	99.330045
1764.000000	99.172556
1762.000000	98.775036
1760.000000	98.835042
1758.000000	98.768215
1756.000000	98.637972
1754.000000	98.421857
1752.000000	97.666092
1750.000000	97.429871
1748.000000	97.690677
1746.000000	97.791171
1744.000000	97.653040
1742.000000	97.292586
1740.000000	96.938099
1738.000000	96.918971
1736.000000	95.973509
1734.000000	94.999726
1732.000000	95.936849
1730.000000	96.835822
1728.000000	97.072268
1726.000000	97.080530
1724.000000	96.977133
1722.000000	96.791377
1720.000000	95.874789
1718.000000	94.599440
1716.000000	94.852027
1714.000000	95.814716
1712.000000	96.302522
1710.000000	96.262490
1708.000000	95.916601
1706.000000	95.484729
1704.000000	95.255704
1702.000000	94.064708
1700.000000	93.177179
1698.000000	93.516364
1696.000000	93.432442
1694.000000	94.560706
1692.000000	95.555494
1690.000000	95.492380
1688.000000	94.996921
1686.000000	93.377955
1684.000000	92.760720
1682.000000	94.225898
1680.000000	95.079139
1678.000000	94.905863
1676.000000	94.214882
1674.000000	94.218595
1672.000000	94.293251
1670.000000	93.867776
1668.000000	94.143959
1666.000000	94.547712
1664.000000	94.208221
1662.000000	94.041906
1660.000000	94.322538
1658.000000	94.231051
1656.000000	92.887858
1654.000000	90.377843
1652.000000	90.574215
1650.000000	92.573572
1648.000000	92.452503
1646.000000	92.100115
1644.000000	92.869695
1642.000000	93.323702
1640.000000	93.081921
1638.000000	92.160697
1636.000000	91.081213
1634.000000	91.578872
1632.000000	92.395363
1630.000000	92.240920
1628.000000	91.815003
1626.000000	91.392210
1624.000000	90.751382
1622.000000	90.456749
1620.000000	90.098191
1618.000000	88.824776
1616.000000	88.284851
1614.000000	88.760211
1612.000000	88.476576
1610.000000	87.838903
1608.000000	87.515274
1606.000000	87.564356
1604.000000	87.761269
1602.000000	88.009446
1600.000000	88.257198
1598.000000	88.463562
1596.000000	88.597178
1594.000000	88.711609
1592.000000	88.789005
1590.000000	88.799876
1588.000000	88.767635
1586.000000	88.702131
1584.000000	88.625636
1582.000000	88.573032
1580.000000	88.387020
1578.000000	87.398567
1576.000000	86.701121
1574.000000	87.615858
1572.000000	87.910442
1570.000000	87.395557
1568.000000	87.488554
1566.000000	87.606481
1564.000000	87.285510
1562.000000	85.949411
1560.000000	83.736325
1558.000000	83.771119
1556.000000	85.358186
1554.000000	86.226927
1552.000000	86.884567
1550.000000	87.244896
1548.000000	87.431837
1546.000000	87.220419
1544.000000	86.696352
1542.000000	85.790593
1540.000000	85.284173
1538.000000	86.700516
1536.000000	88.105480
1534.000000	88.113194
1532.000000	88.467146
1530.000000	88.834178
1528.000000	88.604259
1526.000000	88.251593
1524.000000	87.818060
1522.000000	87.002347
1520.000000	87.164112
1518.000000	87.636414
1516.000000	87.673604
1514.000000	87.713611
1512.000000	87.504826
1510.000000	86.867945
1508.000000	85.243602
1506.000000	84.474762
1504.000000	85.245786
1502.000000	84.742571
1500.000000	82.215315
1498.000000	78.760314
1496.000000	76.244701
1494.000000	76.047833
1492.000000	77.125293
1490.000000	78.757120
1488.000000	80.750856
1486.000000	82.468131
1484.000000	83.597840
1482.000000	84.110233
1480.000000	84.345735
1478.000000	84.209224
1476.000000	83.720041
1474.000000	82.998258
1472.000000	82.824553
1470.000000	83.344480
1468.000000	83.304456
1466.000000	82.598215
1464.000000	82.204851
1462.000000	82.039972
1460.000000	80.924572
1458.000000	78.876522
1456.000000	77.896602
1454.000000	78.002634
1452.000000	77.697206
1450.000000	77.746657
1448.000000	78.527489
1446.000000	79.561407
1444.000000	80.104979
1442.000000	80.232237
1440.000000	80.065487
1438.000000	79.446411
1436.000000	79.362504
1434.000000	80.053095
1432.000000	80.207406
1430.000000	80.117240
1428.000000	80.182223
1426.000000	80.203911
1424.000000	80.063022
1422.000000	79.745186
1420.000000	79.012469
1418.000000	79.005643
1416.000000	79.412024
1414.000000	79.384556
1412.000000	79.035114
1410.000000	78.514886
1408.000000	77.753336
1406.000000	76.889108
1404.000000	76.418465
1402.000000	76.452090
1400.000000	76.597676
1398.000000	76.991727
1396.000000	77.331483
1394.000000	77.669137
1392.000000	78.122942
1390.000000	78.130895
1388.000000	77.716961
1386.000000	77.486297
1384.000000	77.490781
1382.000000	77.612826
1380.000000	77.701850
1378.000000	77.635211
1376.000000	77.433515
1374.000000	77.267859
1372.000000	77.285205
1370.000000	77.221703
1368.000000	77.067852
1366.000000	76.904320
1364.000000	76.610884
1362.000000	76.402469
1360.000000	76.370529
1358.000000	76.284523
1356.000000	76.093581
1354.000000	75.892266
1352.000000	75.693387
1350.000000	75.479869
1348.000000	75.261978
1346.000000	75.036823
1344.000000	74.785813
1342.000000	74.481588
1340.000000	74.183250
1338.000000	74.054206
1336.000000	74.021315
1334.000000	73.952783
1332.000000	73.807613
1330.000000	73.617125
1328.000000	73.395062
1326.000000	73.154216
1324.000000	72.891729
1322.000000	72.605010
1320.000000	72.284456
1318.000000	71.982594
1316.000000	71.696357
1314.000000	71.389108
1312.000000	71.079985
1310.000000	70.777436
1308.000000	70.453530
1306.000000	70.126463
1304.000000	69.788299
1302.000000	69.446500
1300.000000	69.101818
1298.000000	68.755984
1296.000000	68.400355
1294.000000	68.037849
1292.000000	67.655202
1290.000000	67.258735
1288.000000	66.854890
1286.000000	66.460788
1284.000000	66.053075
1282.000000	65.622993
1280.000000	65.165053
1278.000000	64.679438
1276.000000	64.140771
1274.000000	63.526168
1272.000000	62.796057
1270.000000	61.913448
1268.000000	60.811977
1266.000000	59.494632
1264.000000	58.122416
1262.000000	57.021382
1260.000000	56.471422
1258.000000	56.480727
1256.000000	56.773125
1254.000000	57.019134
1252.000000	57.017417
1250.000000	56.775925
1248.000000	56.378955
1246.000000	55.905947
1244.000000	55.399194
1242.000000	54.887748
1240.000000	54.379022
1238.000000	53.887748
1236.000000	53.410532
1234.000000	52.950340
1232.000000	52.497255
1230.000000	52.052229
1228.000000	51.605620
1226.000000	51.154983
1224.000000	50.696047
1222.000000	50.226632
1220.000000	49.734150
1218.000000	49.225667
1216.000000	48.703901
1214.000000	48.187101
1212.000000	47.694119
1210.000000	47.243155
1208.000000	46.826320
1206.000000	46.429923
1204.000000	46.033573
1202.000000	45.636015
1200.000000	45.241193
1198.000000	44.855272
1196.000000	44.463064
1194.000000	44.058535
1192.000000	43.639643
1190.000000	43.211240
1188.000000	42.767852
1186.000000	42.296772
1184.000000	41.714672
1182.000000	40.990128
1180.000000	40.424648
1178.000000	40.176212
1176.000000	39.942319
1174.000000	39.586269
1172.000000	39.160849
1170.000000	38.711951
1168.000000	38.245982
1166.000000	37.774317
1164.000000	37.304035
1162.000000	36.842677
1160.000000	36.386806
1158.000000	35.951579
1156.000000	35.530773
1154.000000	35.114282
1152.000000	34.688963
1150.000000	34.266790
1148.000000	33.837359
1146.000000	33.400275
1144.000000	32.970090
1142.000000	32.590586
1140.000000	32.278279
1138.000000	31.967554
1136.000000	31.608795
1134.000000	31.217198
1132.000000	30.802320
1130.000000	30.376864
1128.000000	29.953307
1126.000000	29.536619
1124.000000	29.108405
1122.000000	28.669625
1120.000000	28.219527
1118.000000	27.763530
1116.000000	27.299488
1114.000000	26.830603
1112.000000	26.359809
1110.000000	25.898652
1108.000000	25.445850
1106.000000	25.010752
1104.000000	24.592412
1102.000000	24.181827
1100.000000	23.770030
1098.000000	23.363294
1096.000000	22.966373
1094.000000	22.586463
1092.000000	22.219222
1090.000000	21.866533
1088.000000	21.522609
1086.000000	21.186698
1084.000000	20.841112
1082.000000	20.483257
1080.000000	20.145392
1078.000000	19.841911
1076.000000	19.564186
1074.000000	19.331974
1072.000000	19.117061
1070.000000	18.893966
1068.000000	18.662771
1066.000000	18.431280
1064.000000	18.200807
1062.000000	17.968576
1060.000000	17.719793
1058.000000	17.432219
1056.000000	17.044182
1054.000000	16.531990
1052.000000	16.023123
1050.000000	15.724119
1048.000000	15.691760
1046.000000	15.776121
1044.000000	15.779085
1042.000000	15.661833
1040.000000	15.474198
1038.000000	15.260849
1036.000000	15.034177
1034.000000	14.797569
1032.000000	14.547956
1030.000000	14.291614
1028.000000	14.027283
1026.000000	13.757704
1024.000000	13.483900
1022.000000	13.216574
1020.000000	12.961501
1018.000000	12.726848
1016.000000	12.513660
1014.000000	12.326822
1012.000000	12.156862
1010.000000	11.994660
1008.000000	11.827848
1006.000000	11.652995
1004.000000	11.459681
1002.000000	11.248948
1000.000000	11.020318
