PE IR       SUBTECH     SPECTRUM    ASCII       PEDS        4.00        
   -1
TE110A_088_150K_BG.ASC
20/05/14
16:21:37.00
20/05/14
16:21:37.00
Administrator
TE110A.Thursday, May 14 2020, 019.
1000.000000
#HDR
-1
-1
#GR
cm-1
EGY
1.0
0.0
6000.000000
-2.000000
2501
8
105.176045
11.037107
#DATA
6000.000000	16.455519
5998.000000	16.487172
5996.000000	16.519236
5994.000000	16.551705
5992.000000	16.583353
5990.000000	16.615397
5988.000000	16.647682
5986.000000	16.680190
5984.000000	16.712269
5982.000000	16.744939
5980.000000	16.777122
5978.000000	16.810350
5976.000000	16.843224
5974.000000	16.876302
5972.000000	16.909036
5970.000000	16.941079
5968.000000	16.972737
5966.000000	17.006303
5964.000000	17.039837
5962.000000	17.074411
5960.000000	17.107881
5958.000000	17.141342
5956.000000	17.175072
5954.000000	17.209229
5952.000000	17.242780
5950.000000	17.276588
5948.000000	17.309503
5946.000000	17.342080
5944.000000	17.374234
5942.000000	17.407548
5940.000000	17.441230
5938.000000	17.474841
5936.000000	17.506880
5934.000000	17.539267
5932.000000	17.572136
5930.000000	17.606249
5928.000000	17.640869
5926.000000	17.675608
5924.000000	17.709635
5922.000000	17.744141
5920.000000	17.778742
5918.000000	17.814771
5916.000000	17.849821
5914.000000	17.884548
5912.000000	17.918856
5910.000000	17.954652
5908.000000	17.991114
5906.000000	18.026932
5904.000000	18.061613
5902.000000	18.097093
5900.000000	18.133810
5898.000000	18.170825
5896.000000	18.207103
5894.000000	18.242724
5892.000000	18.277313
5890.000000	18.312088
5888.000000	18.346566
5886.000000	18.382256
5884.000000	18.417365
5882.000000	18.452307
5880.000000	18.486953
5878.000000	18.522696
5876.000000	18.558892
5874.000000	18.595593
5872.000000	18.631931
5870.000000	18.667184
5868.000000	18.701479
5866.000000	18.736717
5864.000000	18.772934
5862.000000	18.809834
5860.000000	18.846047
5858.000000	18.883357
5856.000000	18.920766
5854.000000	18.958366
5852.000000	18.995556
5850.000000	19.034147
5848.000000	19.073205
5846.000000	19.111585
5844.000000	19.149524
5842.000000	19.188625
5840.000000	19.228287
5838.000000	19.269205
5836.000000	19.310482
5834.000000	19.352907
5832.000000	19.394362
5830.000000	19.434529
5828.000000	19.473604
5826.000000	19.513685
5824.000000	19.554422
5822.000000	19.595553
5820.000000	19.635573
5818.000000	19.675570
5816.000000	19.714950
5814.000000	19.755022
5812.000000	19.793671
5810.000000	19.833667
5808.000000	19.874214
5806.000000	19.914961
5804.000000	19.955169
5802.000000	19.994747
5800.000000	20.034296
5798.000000	20.073876
5796.000000	20.112622
5794.000000	20.153116
5792.000000	20.193666
5790.000000	20.235497
5788.000000	20.276206
5786.000000	20.316877
5784.000000	20.356741
5782.000000	20.396696
5780.000000	20.436570
5778.000000	20.477383
5776.000000	20.518961
5774.000000	20.561022
5772.000000	20.601668
5770.000000	20.641927
5768.000000	20.681511
5766.000000	20.722255
5764.000000	20.762795
5762.000000	20.804342
5760.000000	20.845561
5758.000000	20.887063
5756.000000	20.927996
5754.000000	20.968776
5752.000000	21.009517
5750.000000	21.051378
5748.000000	21.092372
5746.000000	21.132640
5744.000000	21.171657
5742.000000	21.211433
5740.000000	21.251402
5738.000000	21.291367
5736.000000	21.330723
5734.000000	21.371069
5732.000000	21.411061
5730.000000	21.451246
5728.000000	21.489998
5726.000000	21.528947
5724.000000	21.569016
5722.000000	21.610517
5720.000000	21.652692
5718.000000	21.695111
5716.000000	21.737117
5714.000000	21.780030
5712.000000	21.822421
5710.000000	21.865910
5708.000000	21.908388
5706.000000	21.951536
5704.000000	21.994748
5702.000000	22.038543
5700.000000	22.081902
5698.000000	22.125433
5696.000000	22.168956
5694.000000	22.213493
5692.000000	22.257941
5690.000000	22.303057
5688.000000	22.347097
5686.000000	22.391377
5684.000000	22.435274
5682.000000	22.479931
5680.000000	22.524409
5678.000000	22.569300
5676.000000	22.613905
5674.000000	22.658843
5672.000000	22.702556
5670.000000	22.747179
5668.000000	22.791844
5666.000000	22.837417
5664.000000	22.882193
5662.000000	22.926475
5660.000000	22.970089
5658.000000	23.013994
5656.000000	23.059321
5654.000000	23.105472
5652.000000	23.149531
5650.000000	23.192803
5648.000000	23.236112
5646.000000	23.281960
5644.000000	23.327111
5642.000000	23.371841
5640.000000	23.415986
5638.000000	23.460591
5636.000000	23.504565
5634.000000	23.548534
5632.000000	23.591934
5630.000000	23.637307
5628.000000	23.683215
5626.000000	23.729139
5624.000000	23.772486
5622.000000	23.815690
5620.000000	23.859418
5618.000000	23.904381
5616.000000	23.949181
5614.000000	23.994715
5612.000000	24.039414
5610.000000	24.083959
5608.000000	24.128107
5606.000000	24.173499
5604.000000	24.219200
5602.000000	24.264328
5600.000000	24.308571
5598.000000	24.354159
5596.000000	24.400028
5594.000000	24.446746
5592.000000	24.491995
5590.000000	24.536882
5588.000000	24.581972
5586.000000	24.627922
5584.000000	24.674453
5582.000000	24.721048
5580.000000	24.766872
5578.000000	24.813041
5576.000000	24.858927
5574.000000	24.905742
5572.000000	24.952219
5570.000000	24.999703
5568.000000	25.046582
5566.000000	25.094039
5564.000000	25.140481
5562.000000	25.187393
5560.000000	25.234041
5558.000000	25.281134
5556.000000	25.327588
5554.000000	25.374079
5552.000000	25.419882
5550.000000	25.466480
5548.000000	25.513411
5546.000000	25.560750
5544.000000	25.607227
5542.000000	25.653995
5540.000000	25.699849
5538.000000	25.746489
5536.000000	25.793422
5534.000000	25.842402
5532.000000	25.890647
5530.000000	25.937495
5528.000000	25.982807
5526.000000	26.027738
5524.000000	26.072472
5522.000000	26.118646
5520.000000	26.164451
5518.000000	26.210478
5516.000000	26.256764
5514.000000	26.304923
5512.000000	26.351804
5510.000000	26.396194
5508.000000	26.439515
5506.000000	26.486672
5504.000000	26.537173
5502.000000	26.587937
5500.000000	26.635772
5498.000000	26.680612
5496.000000	26.720650
5494.000000	26.759967
5492.000000	26.803155
5490.000000	26.854518
5488.000000	26.910249
5486.000000	26.965822
5484.000000	27.019257
5482.000000	27.069955
5480.000000	27.112183
5478.000000	27.146970
5476.000000	27.186138
5474.000000	27.238353
5472.000000	27.297372
5470.000000	27.350361
5468.000000	27.396415
5466.000000	27.441064
5464.000000	27.484018
5462.000000	27.529550
5460.000000	27.580418
5458.000000	27.636544
5456.000000	27.691967
5454.000000	27.740664
5452.000000	27.781960
5450.000000	27.818516
5448.000000	27.856373
5446.000000	27.900775
5444.000000	27.947802
5442.000000	28.000510
5440.000000	28.053905
5438.000000	28.102086
5436.000000	28.146870
5434.000000	28.191875
5432.000000	28.236852
5430.000000	28.282793
5428.000000	28.336727
5426.000000	28.402480
5424.000000	28.466474
5422.000000	28.522491
5420.000000	28.570388
5418.000000	28.604815
5416.000000	28.627865
5414.000000	28.655722
5412.000000	28.702778
5410.000000	28.768564
5408.000000	28.835843
5406.000000	28.897262
5404.000000	28.951424
5402.000000	29.002757
5400.000000	29.047677
5398.000000	29.083765
5396.000000	29.116550
5394.000000	29.162604
5392.000000	29.223638
5390.000000	29.284107
5388.000000	29.330722
5386.000000	29.375891
5384.000000	29.431387
5382.000000	29.489364
5380.000000	29.529596
5378.000000	29.563790
5376.000000	29.610672
5374.000000	29.676763
5372.000000	29.744497
5370.000000	29.803114
5368.000000	29.851968
5366.000000	29.897293
5364.000000	29.945560
5362.000000	29.999603
5360.000000	30.052050
5358.000000	30.092664
5356.000000	30.122220
5354.000000	30.159261
5352.000000	30.211372
5350.000000	30.267878
5348.000000	30.306444
5346.000000	30.341206
5344.000000	30.388712
5342.000000	30.441617
5340.000000	30.489056
5338.000000	30.540608
5336.000000	30.605853
5334.000000	30.673705
5332.000000	30.728253
5330.000000	30.772797
5328.000000	30.819123
5326.000000	30.876417
5324.000000	30.940383
5322.000000	30.999143
5320.000000	31.048390
5318.000000	31.095644
5316.000000	31.144577
5314.000000	31.196810
5312.000000	31.244927
5310.000000	31.287124
5308.000000	31.331441
5306.000000	31.384364
5304.000000	31.441107
5302.000000	31.494635
5300.000000	31.546059
5298.000000	31.599218
5296.000000	31.651000
5294.000000	31.695411
5292.000000	31.734658
5290.000000	31.781200
5288.000000	31.835941
5286.000000	31.894607
5284.000000	31.949236
5282.000000	32.003284
5280.000000	32.057195
5278.000000	32.112535
5276.000000	32.168212
5274.000000	32.220777
5272.000000	32.267327
5270.000000	32.310979
5268.000000	32.348604
5266.000000	32.383492
5264.000000	32.426858
5262.000000	32.488473
5260.000000	32.556360
5258.000000	32.610485
5256.000000	32.655326
5254.000000	32.705243
5252.000000	32.755009
5250.000000	32.797515
5248.000000	32.837240
5246.000000	32.889930
5244.000000	32.955842
5242.000000	33.024783
5240.000000	33.087870
5238.000000	33.142060
5236.000000	33.190243
5234.000000	33.235297
5232.000000	33.282116
5230.000000	33.330094
5228.000000	33.373483
5226.000000	33.418897
5224.000000	33.474901
5222.000000	33.538212
5220.000000	33.595333
5218.000000	33.649493
5216.000000	33.705262
5214.000000	33.759215
5212.000000	33.800444
5210.000000	33.830148
5208.000000	33.864057
5206.000000	33.920675
5204.000000	33.993341
5202.000000	34.063006
5200.000000	34.117473
5198.000000	34.168040
5196.000000	34.222067
5194.000000	34.280037
5192.000000	34.335136
5190.000000	34.386433
5188.000000	34.434187
5186.000000	34.484667
5184.000000	34.539426
5182.000000	34.597840
5180.000000	34.654195
5178.000000	34.709988
5176.000000	34.764911
5174.000000	34.818946
5172.000000	34.871890
5170.000000	34.926825
5168.000000	34.980993
5166.000000	35.033320
5164.000000	35.085019
5162.000000	35.139916
5160.000000	35.194427
5158.000000	35.247433
5156.000000	35.300750
5154.000000	35.356365
5152.000000	35.412439
5150.000000	35.468429
5148.000000	35.523665
5146.000000	35.577783
5144.000000	35.629826
5142.000000	35.682831
5140.000000	35.737125
5138.000000	35.792198
5136.000000	35.845365
5134.000000	35.898350
5132.000000	35.951422
5130.000000	36.005794
5128.000000	36.060499
5126.000000	36.116026
5124.000000	36.169049
5122.000000	36.220754
5120.000000	36.272583
5118.000000	36.326799
5116.000000	36.381359
5114.000000	36.436433
5112.000000	36.491162
5110.000000	36.546462
5108.000000	36.601568
5106.000000	36.657011
5104.000000	36.711217
5102.000000	36.765600
5100.000000	36.819902
5098.000000	36.874810
5096.000000	36.929704
5094.000000	36.986093
5092.000000	37.042273
5090.000000	37.099009
5088.000000	37.155109
5086.000000	37.211501
5084.000000	37.267522
5082.000000	37.325277
5080.000000	37.382695
5078.000000	37.438601
5076.000000	37.492912
5074.000000	37.548488
5072.000000	37.605005
5070.000000	37.662282
5068.000000	37.718337
5066.000000	37.774739
5064.000000	37.830601
5062.000000	37.887276
5060.000000	37.943783
5058.000000	38.000422
5056.000000	38.055762
5054.000000	38.111298
5052.000000	38.166330
5050.000000	38.221187
5048.000000	38.275991
5046.000000	38.332734
5044.000000	38.388901
5042.000000	38.444456
5040.000000	38.499738
5038.000000	38.556091
5036.000000	38.611663
5034.000000	38.667757
5032.000000	38.723328
5030.000000	38.778300
5028.000000	38.831721
5026.000000	38.886579
5024.000000	38.941862
5022.000000	38.998467
5020.000000	39.055252
5018.000000	39.111882
5016.000000	39.166173
5014.000000	39.221493
5012.000000	39.277936
5010.000000	39.335565
5008.000000	39.392632
5006.000000	39.450030
5004.000000	39.505850
5002.000000	39.561986
5000.000000	39.619519
4998.000000	39.679159
4996.000000	39.737434
4994.000000	39.794786
4992.000000	39.851582
4990.000000	39.909542
4988.000000	39.967388
4986.000000	40.026273
4984.000000	40.085163
4982.000000	40.144097
4980.000000	40.200997
4978.000000	40.257873
4976.000000	40.314974
4974.000000	40.373308
4972.000000	40.430983
4970.000000	40.488935
4968.000000	40.545572
4966.000000	40.602296
4964.000000	40.658501
4962.000000	40.716081
4960.000000	40.773314
4958.000000	40.830645
4956.000000	40.886544
4954.000000	40.943610
4952.000000	41.000868
4950.000000	41.057423
4948.000000	41.112990
4946.000000	41.170089
4944.000000	41.226436
4942.000000	41.282881
4940.000000	41.339593
4938.000000	41.397565
4936.000000	41.453703
4934.000000	41.509816
4932.000000	41.565743
4930.000000	41.622711
4928.000000	41.679711
4926.000000	41.737631
4924.000000	41.794166
4922.000000	41.850052
4920.000000	41.906302
4918.000000	41.964374
4916.000000	42.021596
4914.000000	42.079205
4912.000000	42.136579
4910.000000	42.194901
4908.000000	42.252523
4906.000000	42.311337
4904.000000	42.369858
4902.000000	42.428865
4900.000000	42.486815
4898.000000	42.544812
4896.000000	42.603260
4894.000000	42.663433
4892.000000	42.723294
4890.000000	42.782283
4888.000000	42.839879
4886.000000	42.898713
4884.000000	42.958615
4882.000000	43.019240
4880.000000	43.077345
4878.000000	43.135332
4876.000000	43.193889
4874.000000	43.253875
4872.000000	43.312096
4870.000000	43.370340
4868.000000	43.428552
4866.000000	43.486983
4864.000000	43.544012
4862.000000	43.602238
4860.000000	43.661612
4858.000000	43.720859
4856.000000	43.778051
4854.000000	43.835547
4852.000000	43.892553
4850.000000	43.950232
4848.000000	44.007015
4846.000000	44.064617
4844.000000	44.122514
4842.000000	44.181660
4840.000000	44.238821
4838.000000	44.295467
4836.000000	44.352539
4834.000000	44.410493
4832.000000	44.467204
4830.000000	44.524738
4828.000000	44.583410
4826.000000	44.642481
4824.000000	44.700127
4822.000000	44.757623
4820.000000	44.815365
4818.000000	44.874247
4816.000000	44.932818
4814.000000	44.991974
4812.000000	45.051266
4810.000000	45.111125
4808.000000	45.169692
4806.000000	45.229488
4804.000000	45.289019
4802.000000	45.348282
4800.000000	45.407123
4798.000000	45.468213
4796.000000	45.528742
4794.000000	45.588881
4792.000000	45.648607
4790.000000	45.710191
4788.000000	45.771651
4786.000000	45.832797
4784.000000	45.891923
4782.000000	45.951147
4780.000000	46.010055
4778.000000	46.070296
4776.000000	46.129386
4774.000000	46.188730
4772.000000	46.247991
4770.000000	46.308732
4768.000000	46.368725
4766.000000	46.428605
4764.000000	46.487028
4762.000000	46.545628
4760.000000	46.603975
4758.000000	46.663037
4756.000000	46.721544
4754.000000	46.780047
4752.000000	46.837258
4750.000000	46.895569
4748.000000	46.953888
4746.000000	47.011537
4744.000000	47.068339
4742.000000	47.126826
4740.000000	47.184867
4738.000000	47.242426
4736.000000	47.299771
4734.000000	47.358612
4732.000000	47.417198
4730.000000	47.476851
4728.000000	47.535636
4726.000000	47.594632
4724.000000	47.653816
4722.000000	47.714865
4720.000000	47.775120
4718.000000	47.835262
4716.000000	47.895378
4714.000000	47.957871
4712.000000	48.020660
4710.000000	48.082591
4708.000000	48.142965
4706.000000	48.205631
4704.000000	48.269017
4702.000000	48.332121
4700.000000	48.394153
4698.000000	48.457629
4696.000000	48.519961
4694.000000	48.581444
4692.000000	48.641923
4690.000000	48.703912
4688.000000	48.765889
4686.000000	48.828586
4684.000000	48.889676
4682.000000	48.950301
4680.000000	49.010993
4678.000000	49.073256
4676.000000	49.134553
4674.000000	49.195522
4672.000000	49.256456
4670.000000	49.318918
4668.000000	49.380811
4666.000000	49.442350
4664.000000	49.502533
4662.000000	49.562780
4660.000000	49.622286
4658.000000	49.683093
4656.000000	49.743742
4654.000000	49.804250
4652.000000	49.864710
4650.000000	49.927244
4648.000000	49.989674
4646.000000	50.051345
4644.000000	50.111197
4642.000000	50.171466
4640.000000	50.231881
4638.000000	50.292909
4636.000000	50.354030
4634.000000	50.416700
4632.000000	50.478115
4630.000000	50.538850
4628.000000	50.599014
4626.000000	50.660076
4624.000000	50.721561
4622.000000	50.784536
4620.000000	50.847122
4618.000000	50.910524
4616.000000	50.973316
4614.000000	51.036145
4612.000000	51.099063
4610.000000	51.163041
4608.000000	51.227001
4606.000000	51.291901
4604.000000	51.356642
4602.000000	51.422318
4600.000000	51.487522
4598.000000	51.552459
4596.000000	51.617048
4594.000000	51.682297
4592.000000	51.746163
4590.000000	51.810972
4588.000000	51.875433
4586.000000	51.939690
4584.000000	52.003612
4582.000000	52.069033
4580.000000	52.132984
4578.000000	52.196848
4576.000000	52.260361
4574.000000	52.324260
4572.000000	52.387443
4570.000000	52.451077
4568.000000	52.514180
4566.000000	52.578661
4564.000000	52.643242
4562.000000	52.707759
4560.000000	52.770253
4558.000000	52.831724
4556.000000	52.892640
4554.000000	52.955585
4552.000000	53.019083
4550.000000	53.083009
4548.000000	53.144789
4546.000000	53.206333
4544.000000	53.268560
4542.000000	53.332400
4540.000000	53.395050
4538.000000	53.457631
4536.000000	53.519726
4534.000000	53.582935
4532.000000	53.646772
4530.000000	53.711562
4528.000000	53.774087
4526.000000	53.835490
4524.000000	53.898448
4522.000000	53.964665
4520.000000	54.029793
4518.000000	54.094083
4516.000000	54.158127
4514.000000	54.222205
4512.000000	54.286045
4510.000000	54.351935
4508.000000	54.417597
4506.000000	54.484119
4504.000000	54.550790
4502.000000	54.617161
4500.000000	54.681801
4498.000000	54.747198
4496.000000	54.812588
4494.000000	54.878376
4492.000000	54.942696
4490.000000	55.007672
4488.000000	55.073420
4486.000000	55.139501
4484.000000	55.203629
4482.000000	55.267544
4480.000000	55.331194
4478.000000	55.395840
4476.000000	55.460442
4474.000000	55.525182
4472.000000	55.587983
4470.000000	55.650637
4468.000000	55.712677
4466.000000	55.775564
4464.000000	55.838669
4462.000000	55.902301
4460.000000	55.963556
4458.000000	56.024722
4456.000000	56.086684
4454.000000	56.149583
4452.000000	56.210875
4450.000000	56.273031
4448.000000	56.336242
4446.000000	56.400696
4444.000000	56.463380
4442.000000	56.525440
4440.000000	56.587589
4438.000000	56.651518
4436.000000	56.714516
4434.000000	56.777102
4432.000000	56.838676
4430.000000	56.901504
4428.000000	56.964685
4426.000000	57.028809
4424.000000	57.092532
4422.000000	57.156312
4420.000000	57.219232
4418.000000	57.284009
4416.000000	57.348805
4414.000000	57.413359
4412.000000	57.477447
4410.000000	57.542299
4408.000000	57.606320
4406.000000	57.671467
4404.000000	57.735973
4402.000000	57.800134
4400.000000	57.863492
4398.000000	57.927837
4396.000000	57.992149
4394.000000	58.057184
4392.000000	58.120072
4390.000000	58.181404
4388.000000	58.241953
4386.000000	58.304621
4384.000000	58.367764
4382.000000	58.430146
4380.000000	58.490291
4378.000000	58.550672
4376.000000	58.610685
4374.000000	58.671032
4372.000000	58.731146
4370.000000	58.791943
4368.000000	58.852047
4366.000000	58.912796
4364.000000	58.973282
4362.000000	59.034454
4360.000000	59.095697
4358.000000	59.158674
4356.000000	59.221418
4354.000000	59.284525
4352.000000	59.347352
4350.000000	59.409870
4348.000000	59.471217
4346.000000	59.535508
4344.000000	59.600437
4342.000000	59.664460
4340.000000	59.727334
4338.000000	59.791265
4336.000000	59.854074
4334.000000	59.917436
4332.000000	59.981872
4330.000000	60.046746
4328.000000	60.109305
4326.000000	60.174100
4324.000000	60.241824
4322.000000	60.310770
4320.000000	60.377979
4318.000000	60.445178
4316.000000	60.511861
4314.000000	60.579456
4312.000000	60.646482
4310.000000	60.713773
4308.000000	60.779968
4306.000000	60.847029
4304.000000	60.913913
4302.000000	60.981215
4300.000000	61.047414
4298.000000	61.113879
4296.000000	61.179389
4294.000000	61.243679
4292.000000	61.305706
4290.000000	61.369872
4288.000000	61.433845
4286.000000	61.496502
4284.000000	61.558397
4282.000000	61.620333
4280.000000	61.680090
4278.000000	61.740167
4276.000000	61.799622
4274.000000	61.858831
4272.000000	61.916725
4270.000000	61.975688
4268.000000	62.036300
4266.000000	62.097757
4264.000000	62.157306
4262.000000	62.218501
4260.000000	62.281279
4258.000000	62.344658
4256.000000	62.407591
4254.000000	62.471484
4252.000000	62.534601
4250.000000	62.598881
4248.000000	62.664022
4246.000000	62.729088
4244.000000	62.792173
4242.000000	62.855674
4240.000000	62.918783
4238.000000	62.982945
4236.000000	63.047704
4234.000000	63.113135
4232.000000	63.177485
4230.000000	63.242371
4228.000000	63.306857
4226.000000	63.371348
4224.000000	63.435371
4222.000000	63.500514
4220.000000	63.565891
4218.000000	63.631700
4216.000000	63.695744
4214.000000	63.760248
4212.000000	63.825570
4210.000000	63.891502
4208.000000	63.956675
4206.000000	64.023080
4204.000000	64.090253
4202.000000	64.158879
4200.000000	64.227108
4198.000000	64.295538
4196.000000	64.363421
4194.000000	64.432190
4192.000000	64.500949
4190.000000	64.569918
4188.000000	64.637317
4186.000000	64.704805
4184.000000	64.771638
4182.000000	64.837661
4180.000000	64.902839
4178.000000	64.969584
4176.000000	65.035660
4174.000000	65.100529
4172.000000	65.163339
4170.000000	65.226583
4168.000000	65.291509
4166.000000	65.357718
4164.000000	65.421795
4162.000000	65.485387
4160.000000	65.549197
4158.000000	65.613902
4156.000000	65.678315
4154.000000	65.743041
4152.000000	65.806455
4150.000000	65.870485
4148.000000	65.935901
4146.000000	66.002574
4144.000000	66.068143
4142.000000	66.133348
4140.000000	66.197656
4138.000000	66.262876
4136.000000	66.328376
4134.000000	66.394715
4132.000000	66.460663
4130.000000	66.527295
4128.000000	66.594294
4126.000000	66.662021
4124.000000	66.727989
4122.000000	66.793797
4120.000000	66.859616
4118.000000	66.926209
4116.000000	66.993159
4114.000000	67.060643
4112.000000	67.125948
4110.000000	67.190222
4108.000000	67.252783
4106.000000	67.315685
4104.000000	67.380214
4102.000000	67.446560
4100.000000	67.511334
4098.000000	67.575358
4096.000000	67.638788
4094.000000	67.703254
4092.000000	67.768087
4090.000000	67.834357
4088.000000	67.902577
4086.000000	67.973951
4084.000000	68.043989
4082.000000	68.111740
4080.000000	68.178278
4078.000000	68.245602
4076.000000	68.312175
4074.000000	68.379256
4072.000000	68.446305
4070.000000	68.512245
4068.000000	68.575398
4066.000000	68.639624
4064.000000	68.704945
4062.000000	68.769837
4060.000000	68.833507
4058.000000	68.899029
4056.000000	68.964856
4054.000000	69.030642
4052.000000	69.095724
4050.000000	69.160350
4048.000000	69.221835
4046.000000	69.280964
4044.000000	69.343010
4042.000000	69.412609
4040.000000	69.483342
4038.000000	69.552384
4036.000000	69.619864
4034.000000	69.687043
4032.000000	69.753197
4030.000000	69.819290
4028.000000	69.883382
4026.000000	69.948898
4024.000000	70.019085
4022.000000	70.089806
4020.000000	70.156864
4018.000000	70.226000
4016.000000	70.296330
4014.000000	70.365113
4012.000000	70.430930
4010.000000	70.496256
4008.000000	70.564723
4006.000000	70.636905
4004.000000	70.707826
4002.000000	70.777514
4000.000000	70.844294
3998.000000	70.907369
3996.000000	70.968506
3994.000000	71.031030
3992.000000	71.093845
3990.000000	71.160885
3988.000000	71.231108
3986.000000	71.297388
3984.000000	71.358328
3982.000000	71.420240
3980.000000	71.482402
3978.000000	71.541025
3976.000000	71.595824
3974.000000	71.654784
3972.000000	71.719002
3970.000000	71.785931
3968.000000	71.854025
3966.000000	71.916274
3964.000000	71.965552
3962.000000	72.018503
3960.000000	72.084505
3958.000000	72.152265
3956.000000	72.214319
3954.000000	72.265831
3952.000000	72.293839
3950.000000	72.318113
3948.000000	72.376327
3946.000000	72.443692
3944.000000	72.487811
3942.000000	72.563483
3940.000000	72.678734
3938.000000	72.770991
3936.000000	72.799733
3934.000000	72.779958
3932.000000	72.805733
3930.000000	72.919259
3928.000000	73.018599
3926.000000	73.060334
3924.000000	73.111806
3922.000000	73.162797
3920.000000	73.159768
3918.000000	73.182846
3916.000000	73.329435
3914.000000	73.524704
3912.000000	73.653757
3910.000000	73.703364
3908.000000	73.618519
3906.000000	73.370743
3904.000000	73.158481
3902.000000	73.165707
3900.000000	73.386547
3898.000000	73.736569
3896.000000	73.989788
3894.000000	73.954948
3892.000000	73.855286
3890.000000	73.926412
3888.000000	73.912085
3886.000000	73.835679
3884.000000	73.976634
3882.000000	74.140541
3880.000000	74.279512
3878.000000	74.463656
3876.000000	74.503753
3874.000000	74.369844
3872.000000	74.114097
3870.000000	74.021791
3868.000000	74.241908
3866.000000	74.420235
3864.000000	74.542548
3862.000000	74.785788
3860.000000	74.988353
3858.000000	74.711395
3856.000000	73.720479
3854.000000	73.025022
3852.000000	73.631898
3850.000000	74.786570
3848.000000	75.424586
3846.000000	75.508810
3844.000000	75.393981
3842.000000	75.177327
3840.000000	74.772147
3838.000000	74.572755
3836.000000	74.924972
3834.000000	75.398055
3832.000000	75.685927
3830.000000	75.897747
3828.000000	76.028228
3826.000000	76.043204
3824.000000	75.817536
3822.000000	75.532475
3820.000000	75.535798
3818.000000	75.518082
3816.000000	75.583828
3814.000000	76.121805
3812.000000	76.598311
3810.000000	76.524602
3808.000000	76.223645
3806.000000	76.187542
3804.000000	76.096030
3802.000000	75.898519
3800.000000	76.187784
3798.000000	76.674499
3796.000000	76.967722
3794.000000	77.201684
3792.000000	77.366054
3790.000000	77.440199
3788.000000	77.465958
3786.000000	77.478971
3784.000000	77.507902
3782.000000	77.494199
3780.000000	77.476340
3778.000000	77.603244
3776.000000	77.786446
3774.000000	77.828377
3772.000000	77.687025
3770.000000	77.586345
3768.000000	77.669990
3766.000000	77.822615
3764.000000	77.963681
3762.000000	77.976079
3760.000000	77.905841
3758.000000	77.946857
3756.000000	77.853967
3754.000000	77.267909
3752.000000	76.622680
3750.000000	76.631351
3748.000000	76.883080
3746.000000	76.663841
3744.000000	76.821959
3742.000000	77.744150
3740.000000	78.238728
3738.000000	77.987570
3736.000000	77.734631
3734.000000	77.844740
3732.000000	78.223297
3730.000000	78.665278
3728.000000	78.859092
3726.000000	78.883471
3724.000000	78.955932
3722.000000	79.080297
3720.000000	79.239718
3718.000000	79.377114
3716.000000	79.313445
3714.000000	78.945530
3712.000000	78.696016
3710.000000	78.944871
3708.000000	79.414406
3706.000000	79.698560
3704.000000	79.700727
3702.000000	79.671213
3700.000000	79.818727
3698.000000	79.993902
3696.000000	80.047559
3694.000000	79.912806
3692.000000	79.493219
3690.000000	79.016423
3688.000000	79.132370
3686.000000	79.805158
3684.000000	80.270785
3682.000000	80.323489
3680.000000	80.084010
3678.000000	79.494591
3676.000000	79.058700
3674.000000	79.219267
3672.000000	79.344999
3670.000000	79.473578
3668.000000	80.036336
3666.000000	80.569295
3664.000000	80.772438
3662.000000	80.806563
3660.000000	80.704045
3658.000000	80.442157
3656.000000	80.342265
3654.000000	80.361947
3652.000000	79.973494
3650.000000	79.516222
3648.000000	79.721968
3646.000000	80.371929
3644.000000	80.834628
3642.000000	80.992627
3640.000000	81.033427
3638.000000	81.038536
3636.000000	80.996599
3634.000000	80.871657
3632.000000	80.455288
3630.000000	79.919076
3628.000000	80.046549
3626.000000	80.685792
3624.000000	81.003943
3622.000000	80.833091
3620.000000	80.576447
3618.000000	80.618454
3616.000000	80.768512
3614.000000	80.752808
3612.000000	80.654279
3610.000000	80.587565
3608.000000	80.705440
3606.000000	80.973837
3604.000000	81.125518
3602.000000	81.116516
3600.000000	81.081724
3598.000000	81.049759
3596.000000	81.007382
3594.000000	81.018350
3592.000000	81.001937
3590.000000	80.804043
3588.000000	80.642806
3586.000000	80.782983
3584.000000	81.028711
3582.000000	81.140774
3580.000000	81.152432
3578.000000	81.148239
3576.000000	81.147097
3574.000000	81.147593
3572.000000	81.087994
3570.000000	80.875654
3568.000000	80.660373
3566.000000	80.708258
3564.000000	80.910006
3562.000000	81.027298
3560.000000	81.064871
3558.000000	81.087890
3556.000000	81.077217
3554.000000	81.027423
3552.000000	80.999432
3550.000000	80.984225
3548.000000	80.916891
3546.000000	80.867185
3544.000000	80.910902
3542.000000	80.982422
3540.000000	81.001658
3538.000000	80.971090
3536.000000	80.945664
3534.000000	80.939904
3532.000000	80.905525
3530.000000	80.835018
3528.000000	80.770231
3526.000000	80.723654
3524.000000	80.689455
3522.000000	80.683932
3520.000000	80.686362
3518.000000	80.669732
3516.000000	80.639891
3514.000000	80.596140
3512.000000	80.533740
3510.000000	80.474135
3508.000000	80.436601
3506.000000	80.377853
3504.000000	80.291006
3502.000000	80.243613
3500.000000	80.228645
3498.000000	80.189181
3496.000000	80.134830
3494.000000	80.089745
3492.000000	80.040294
3490.000000	79.977899
3488.000000	79.921219
3486.000000	79.879406
3484.000000	79.833946
3482.000000	79.793598
3480.000000	79.782990
3478.000000	79.788893
3476.000000	79.789975
3474.000000	79.793174
3472.000000	79.801389
3470.000000	79.806088
3468.000000	79.817025
3466.000000	79.848121
3464.000000	79.886628
3462.000000	79.923256
3460.000000	79.964272
3458.000000	80.006033
3456.000000	80.042281
3454.000000	80.071330
3452.000000	80.091665
3450.000000	80.092075
3448.000000	80.084022
3446.000000	80.111077
3444.000000	80.166420
3442.000000	80.228649
3440.000000	80.304544
3438.000000	80.391530
3436.000000	80.490485
3434.000000	80.611928
3432.000000	80.752013
3430.000000	80.894797
3428.000000	81.037714
3426.000000	81.174531
3424.000000	81.292456
3422.000000	81.395311
3420.000000	81.505229
3418.000000	81.622597
3416.000000	81.723988
3414.000000	81.804518
3412.000000	81.875970
3410.000000	81.943213
3408.000000	82.006130
3406.000000	82.062929
3404.000000	82.110947
3402.000000	82.153890
3400.000000	82.207872
3398.000000	82.285202
3396.000000	82.369095
3394.000000	82.436427
3392.000000	82.501420
3390.000000	82.584205
3388.000000	82.664989
3386.000000	82.727915
3384.000000	82.785655
3382.000000	82.845109
3380.000000	82.902170
3378.000000	82.954580
3376.000000	83.005270
3374.000000	83.053571
3372.000000	83.089650
3370.000000	83.114413
3368.000000	83.151778
3366.000000	83.205969
3364.000000	83.261429
3362.000000	83.310700
3360.000000	83.356749
3358.000000	83.401240
3356.000000	83.444026
3354.000000	83.486793
3352.000000	83.526635
3350.000000	83.566705
3348.000000	83.613953
3346.000000	83.660522
3344.000000	83.700747
3342.000000	83.738859
3340.000000	83.773857
3338.000000	83.807616
3336.000000	83.851460
3334.000000	83.900765
3332.000000	83.945614
3330.000000	83.983732
3328.000000	84.016446
3326.000000	84.049265
3324.000000	84.088890
3322.000000	84.132049
3320.000000	84.172206
3318.000000	84.208624
3316.000000	84.242260
3314.000000	84.274243
3312.000000	84.305076
3310.000000	84.329479
3308.000000	84.350638
3306.000000	84.378310
3304.000000	84.423359
3302.000000	84.477786
3300.000000	84.522690
3298.000000	84.557428
3296.000000	84.590153
3294.000000	84.620130
3292.000000	84.651321
3290.000000	84.694697
3288.000000	84.743902
3286.000000	84.785707
3284.000000	84.822803
3282.000000	84.861209
3280.000000	84.899066
3278.000000	84.932571
3276.000000	84.964683
3274.000000	85.000164
3272.000000	85.039333
3270.000000	85.085029
3268.000000	85.136623
3266.000000	85.183212
3264.000000	85.226165
3262.000000	85.270073
3260.000000	85.314791
3258.000000	85.357187
3256.000000	85.398967
3254.000000	85.447300
3252.000000	85.501781
3250.000000	85.551502
3248.000000	85.592872
3246.000000	85.634139
3244.000000	85.687655
3242.000000	85.745382
3240.000000	85.798454
3238.000000	85.847332
3236.000000	85.892325
3234.000000	85.934076
3232.000000	85.983399
3230.000000	86.040940
3228.000000	86.096199
3226.000000	86.148904
3224.000000	86.199349
3222.000000	86.244086
3220.000000	86.289247
3218.000000	86.339604
3216.000000	86.388088
3214.000000	86.436041
3212.000000	86.488546
3210.000000	86.542598
3208.000000	86.603122
3206.000000	86.669174
3204.000000	86.737201
3202.000000	86.805724
3200.000000	86.872776
3198.000000	86.941270
3196.000000	87.017283
3194.000000	87.096359
3192.000000	87.171850
3190.000000	87.243214
3188.000000	87.313114
3186.000000	87.382903
3184.000000	87.455958
3182.000000	87.528236
3180.000000	87.595264
3178.000000	87.664201
3176.000000	87.741255
3174.000000	87.817653
3172.000000	87.890441
3170.000000	87.962148
3168.000000	88.036402
3166.000000	88.113782
3164.000000	88.192479
3162.000000	88.270730
3160.000000	88.348791
3158.000000	88.426762
3156.000000	88.503126
3154.000000	88.572316
3152.000000	88.643036
3150.000000	88.727944
3148.000000	88.815693
3146.000000	88.895418
3144.000000	88.970377
3142.000000	89.042159
3140.000000	89.112807
3138.000000	89.183549
3136.000000	89.253950
3134.000000	89.320537
3132.000000	89.389606
3130.000000	89.458636
3128.000000	89.522820
3126.000000	89.583990
3124.000000	89.641329
3122.000000	89.691508
3120.000000	89.738639
3118.000000	89.787534
3116.000000	89.844601
3114.000000	89.912314
3112.000000	89.976647
3110.000000	90.028124
3108.000000	90.080807
3106.000000	90.141435
3104.000000	90.201607
3102.000000	90.258669
3100.000000	90.322899
3098.000000	90.390072
3096.000000	90.455537
3094.000000	90.523494
3092.000000	90.589758
3090.000000	90.649585
3088.000000	90.708471
3086.000000	90.761437
3084.000000	90.808407
3082.000000	90.850202
3080.000000	90.885792
3078.000000	90.924164
3076.000000	90.970429
3074.000000	91.006538
3072.000000	91.026140
3070.000000	91.034126
3068.000000	91.036855
3066.000000	91.051324
3064.000000	91.090372
3062.000000	91.143596
3060.000000	91.199614
3058.000000	91.255025
3056.000000	91.316605
3054.000000	91.383145
3052.000000	91.441936
3050.000000	91.491058
3048.000000	91.541249
3046.000000	91.584730
3044.000000	91.614939
3042.000000	91.639516
3040.000000	91.666808
3038.000000	91.688553
3036.000000	91.697472
3034.000000	91.694666
3032.000000	91.683064
3030.000000	91.654790
3028.000000	91.591936
3026.000000	91.485930
3024.000000	91.359040
3022.000000	91.243242
3020.000000	91.178425
3018.000000	91.205696
3016.000000	91.344755
3014.000000	91.577063
3012.000000	91.861969
3010.000000	92.144055
3008.000000	92.375563
3006.000000	92.537701
3004.000000	92.650994
3002.000000	92.734907
3000.000000	92.794373
2998.000000	92.833801
2996.000000	92.864200
2994.000000	92.884964
2992.000000	92.896418
2990.000000	92.899108
2988.000000	92.886257
2986.000000	92.852938
2984.000000	92.794909
2982.000000	92.706618
2980.000000	92.586865
2978.000000	92.423779
2976.000000	92.198903
2974.000000	91.895312
2972.000000	91.503931
2970.000000	91.024064
2968.000000	90.499695
2966.000000	90.014924
2964.000000	89.659500
2962.000000	89.487976
2960.000000	89.502841
2958.000000	89.646848
2956.000000	89.841152
2954.000000	90.024993
2952.000000	90.168890
2950.000000	90.241363
2948.000000	90.206766
2946.000000	90.042858
2944.000000	89.749678
2942.000000	89.341641
2940.000000	88.852471
2938.000000	88.341690
2936.000000	87.871008
2934.000000	87.450904
2932.000000	87.051894
2930.000000	86.661028
2928.000000	86.334188
2926.000000	86.172284
2924.000000	86.281402
2922.000000	86.701730
2920.000000	87.375513
2918.000000	88.189984
2916.000000	89.039813
2914.000000	89.839913
2912.000000	90.533437
2910.000000	91.089441
2908.000000	91.522541
2906.000000	91.872306
2904.000000	92.175358
2902.000000	92.451209
2900.000000	92.707841
2898.000000	92.946662
2896.000000	93.172411
2894.000000	93.387400
2892.000000	93.592774
2890.000000	93.781295
2888.000000	93.945845
2886.000000	94.074952
2884.000000	94.163243
2882.000000	94.207182
2880.000000	94.206973
2878.000000	94.154776
2876.000000	94.042713
2874.000000	93.863070
2872.000000	93.609196
2870.000000	93.252952
2868.000000	92.770454
2866.000000	92.196701
2864.000000	91.654976
2862.000000	91.301587
2860.000000	91.226868
2858.000000	91.394854
2856.000000	91.698918
2854.000000	92.057039
2852.000000	92.468736
2850.000000	92.973469
2848.000000	93.575959
2846.000000	94.197204
2844.000000	94.742442
2842.000000	95.176099
2840.000000	95.514325
2838.000000	95.783587
2836.000000	96.005849
2834.000000	96.190006
2832.000000	96.346628
2830.000000	96.482679
2828.000000	96.605955
2826.000000	96.717596
2824.000000	96.819367
2822.000000	96.912081
2820.000000	96.999091
2818.000000	97.077749
2816.000000	97.149312
2814.000000	97.213688
2812.000000	97.272040
2810.000000	97.325790
2808.000000	97.377566
2806.000000	97.426242
2804.000000	97.473827
2802.000000	97.517577
2800.000000	97.560368
2798.000000	97.601499
2796.000000	97.643194
2794.000000	97.685512
2792.000000	97.732556
2790.000000	97.787179
2788.000000	97.858047
2786.000000	97.941208
2784.000000	98.026720
2782.000000	98.106316
2780.000000	98.182603
2778.000000	98.251872
2776.000000	98.314036
2774.000000	98.371237
2772.000000	98.428208
2770.000000	98.481830
2768.000000	98.533187
2766.000000	98.581064
2764.000000	98.628276
2762.000000	98.674875
2760.000000	98.721604
2758.000000	98.765735
2756.000000	98.809768
2754.000000	98.851670
2752.000000	98.892115
2750.000000	98.930168
2748.000000	98.967787
2746.000000	99.004281
2744.000000	99.040748
2742.000000	99.074918
2740.000000	99.110242
2738.000000	99.144235
2736.000000	99.178774
2734.000000	99.212989
2732.000000	99.248450
2730.000000	99.282207
2728.000000	99.315362
2726.000000	99.347129
2724.000000	99.380991
2722.000000	99.413419
2720.000000	99.446192
2718.000000	99.476739
2716.000000	99.506219
2714.000000	99.533656
2712.000000	99.560251
2710.000000	99.583484
2708.000000	99.607143
2706.000000	99.632998
2704.000000	99.663990
2702.000000	99.700600
2700.000000	99.744517
2698.000000	99.790567
2696.000000	99.838356
2694.000000	99.883933
2692.000000	99.927599
2690.000000	99.968964
2688.000000	100.010981
2686.000000	100.050786
2684.000000	100.089525
2682.000000	100.126152
2680.000000	100.163083
2678.000000	100.197506
2676.000000	100.230694
2674.000000	100.261254
2672.000000	100.292445
2670.000000	100.322616
2668.000000	100.353864
2666.000000	100.383976
2664.000000	100.413608
2662.000000	100.441294
2660.000000	100.471310
2658.000000	100.501324
2656.000000	100.534469
2654.000000	100.570386
2652.000000	100.609646
2650.000000	100.648738
2648.000000	100.688556
2646.000000	100.727198
2644.000000	100.766398
2642.000000	100.802113
2640.000000	100.836906
2638.000000	100.871294
2636.000000	100.905951
2634.000000	100.938892
2632.000000	100.971785
2630.000000	101.001255
2628.000000	101.030313
2626.000000	101.058159
2624.000000	101.085894
2622.000000	101.112437
2620.000000	101.141907
2618.000000	101.169560
2616.000000	101.196515
2614.000000	101.221409
2612.000000	101.246190
2610.000000	101.267116
2608.000000	101.286919
2606.000000	101.303201
2604.000000	101.317922
2602.000000	101.330572
2600.000000	101.343116
2598.000000	101.350475
2596.000000	101.359777
2594.000000	101.375619
2592.000000	101.399964
2590.000000	101.431693
2588.000000	101.473801
2586.000000	101.522702
2584.000000	101.580875
2582.000000	101.643968
2580.000000	101.707338
2578.000000	101.764291
2576.000000	101.818051
2574.000000	101.865715
2572.000000	101.908631
2570.000000	101.946844
2568.000000	101.984666
2566.000000	102.018894
2564.000000	102.052698
2562.000000	102.083551
2560.000000	102.113317
2558.000000	102.139905
2556.000000	102.167663
2554.000000	102.193848
2552.000000	102.220072
2550.000000	102.244557
2548.000000	102.270909
2546.000000	102.296196
2544.000000	102.321772
2542.000000	102.347217
2540.000000	102.375484
2538.000000	102.401173
2536.000000	102.427981
2534.000000	102.453763
2532.000000	102.480310
2530.000000	102.505122
2528.000000	102.531199
2526.000000	102.555909
2524.000000	102.580588
2522.000000	102.603988
2520.000000	102.628842
2518.000000	102.651781
2516.000000	102.676166
2514.000000	102.699355
2512.000000	102.721716
2510.000000	102.741680
2508.000000	102.763566
2506.000000	102.783598
2504.000000	102.804090
2502.000000	102.823804
2500.000000	102.847829
2498.000000	102.872476
2496.000000	102.898291
2494.000000	102.923850
2492.000000	102.951259
2490.000000	102.976664
2488.000000	103.004057
2486.000000	103.029025
2484.000000	103.054714
2482.000000	103.079346
2480.000000	103.105123
2478.000000	103.129200
2476.000000	103.150884
2474.000000	103.169366
2472.000000	103.190433
2470.000000	103.209797
2468.000000	103.228417
2466.000000	103.244155
2464.000000	103.260946
2462.000000	103.276226
2460.000000	103.292058
2458.000000	103.307105
2456.000000	103.325061
2454.000000	103.341364
2452.000000	103.359647
2450.000000	103.375683
2448.000000	103.392071
2446.000000	103.406680
2444.000000	103.422496
2442.000000	103.437676
2440.000000	103.454169
2438.000000	103.467076
2436.000000	103.480889
2434.000000	103.493851
2432.000000	103.507673
2430.000000	103.517525
2428.000000	103.528151
2426.000000	103.541188
2424.000000	103.557804
2422.000000	103.572263
2420.000000	103.587611
2418.000000	103.600447
2416.000000	103.613116
2414.000000	103.623391
2412.000000	103.635473
2410.000000	103.645423
2408.000000	103.658269
2406.000000	103.670892
2404.000000	103.685067
2402.000000	103.698207
2400.000000	103.714578
2398.000000	103.731493
2396.000000	103.749438
2394.000000	103.765587
2392.000000	103.784758
2390.000000	103.800110
2388.000000	103.811999
2386.000000	103.815724
2384.000000	103.806163
2382.000000	103.771749
2380.000000	103.706433
2378.000000	103.595430
2376.000000	103.437220
2374.000000	103.234925
2372.000000	103.001367
2370.000000	102.750287
2368.000000	102.512452
2366.000000	102.313317
2364.000000	102.183092
2362.000000	102.139121
2360.000000	102.194519
2358.000000	102.348237
2356.000000	102.595025
2354.000000	102.913526
2352.000000	103.269336
2350.000000	103.528221
2348.000000	103.515699
2346.000000	103.284459
2344.000000	103.037846
2342.000000	102.858672
2340.000000	102.757228
2338.000000	102.712188
2336.000000	102.710539
2334.000000	102.740231
2332.000000	102.801068
2330.000000	102.887619
2328.000000	102.996062
2326.000000	103.113791
2324.000000	103.237989
2322.000000	103.359567
2320.000000	103.475909
2318.000000	103.581597
2316.000000	103.677814
2314.000000	103.760245
2312.000000	103.834573
2310.000000	103.896060
2308.000000	103.947966
2306.000000	103.988150
2304.000000	104.024008
2302.000000	104.051943
2300.000000	104.076528
2298.000000	104.095622
2296.000000	104.114784
2294.000000	104.130670
2292.000000	104.147052
2290.000000	104.158403
2288.000000	104.168926
2286.000000	104.176692
2284.000000	104.182868
2282.000000	104.183011
2280.000000	104.181382
2278.000000	104.174851
2276.000000	104.171569
2274.000000	104.166847
2272.000000	104.161918
2270.000000	104.154800
2268.000000	104.149672
2266.000000	104.142636
2264.000000	104.138564
2262.000000	104.135007
2260.000000	104.134893
2258.000000	104.132467
2256.000000	104.132533
2254.000000	104.132629
2252.000000	104.136690
2250.000000	104.142264
2248.000000	104.151783
2246.000000	104.159243
2244.000000	104.170081
2242.000000	104.181318
2240.000000	104.196311
2238.000000	104.208357
2236.000000	104.222024
2234.000000	104.234069
2232.000000	104.248329
2230.000000	104.259828
2228.000000	104.272780
2226.000000	104.282816
2224.000000	104.294827
2222.000000	104.302609
2220.000000	104.311210
2218.000000	104.317783
2216.000000	104.325838
2214.000000	104.329766
2212.000000	104.335057
2210.000000	104.338922
2208.000000	104.345304
2206.000000	104.348058
2204.000000	104.352907
2202.000000	104.357140
2200.000000	104.363783
2198.000000	104.366174
2196.000000	104.367819
2194.000000	104.366833
2192.000000	104.369739
2190.000000	104.370706
2188.000000	104.371771
2186.000000	104.369477
2184.000000	104.371262
2182.000000	104.370302
2180.000000	104.369559
2178.000000	104.366527
2176.000000	104.365251
2174.000000	104.356569
2172.000000	104.333714
2170.000000	104.307163
2168.000000	104.318412
2166.000000	104.339742
2164.000000	104.348684
2162.000000	104.347029
2160.000000	104.345655
2158.000000	104.343246
2156.000000	104.344919
2154.000000	104.342081
2152.000000	104.341364
2150.000000	104.339844
2148.000000	104.339924
2146.000000	104.336628
2144.000000	104.337302
2142.000000	104.333545
2140.000000	104.331952
2138.000000	104.327047
2136.000000	104.324742
2134.000000	104.325122
2132.000000	104.326088
2130.000000	104.321805
2128.000000	104.322275
2126.000000	104.321978
2124.000000	104.322605
2122.000000	104.322368
2120.000000	104.325771
2118.000000	104.328207
2116.000000	104.330378
2114.000000	104.333049
2112.000000	104.344349
2110.000000	104.355653
2108.000000	104.369212
2106.000000	104.381160
2104.000000	104.395517
2102.000000	104.405072
2100.000000	104.416234
2098.000000	104.427231
2096.000000	104.443240
2094.000000	104.454007
2092.000000	104.464657
2090.000000	104.472859
2088.000000	104.493541
2086.000000	104.511170
2084.000000	104.529351
2082.000000	104.542339
2080.000000	104.558146
2078.000000	104.570599
2076.000000	104.589276
2074.000000	104.604054
2072.000000	104.623241
2070.000000	104.638858
2068.000000	104.652284
2066.000000	104.655962
2064.000000	104.680192
2062.000000	104.712794
2060.000000	104.740091
2058.000000	104.762096
2056.000000	104.784426
2054.000000	104.802144
2052.000000	104.824361
2050.000000	104.842272
2048.000000	104.862204
2046.000000	104.880013
2044.000000	104.897450
2042.000000	104.905209
2040.000000	104.926375
2038.000000	104.946440
2036.000000	104.961198
2034.000000	104.969494
2032.000000	104.971690
2030.000000	104.953589
2028.000000	104.961848
2026.000000	104.995844
2024.000000	105.020950
2022.000000	105.028026
2020.000000	105.021217
2018.000000	105.004711
2016.000000	105.031197
2014.000000	105.078785
2012.000000	105.107791
2010.000000	105.121403
2008.000000	105.138366
2006.000000	105.150717
2004.000000	105.161981
2002.000000	105.166320
2000.000000	105.171383
1998.000000	105.176045
1996.000000	105.174708
1994.000000	105.119862
1992.000000	105.072422
1990.000000	105.108026
1988.000000	105.149795
1986.000000	105.165341
1984.000000	105.168114
1982.000000	105.157710
1980.000000	105.147949
1978.000000	105.133990
1976.000000	105.119903
1974.000000	105.101654
1972.000000	105.082975
1970.000000	105.037077
1968.000000	104.968074
1966.000000	104.951452
1964.000000	104.969011
1962.000000	104.917978
1960.000000	104.799268
1958.000000	104.768439
1956.000000	104.847064
1954.000000	104.873828
1952.000000	104.858456
1950.000000	104.824604
1948.000000	104.795441
1946.000000	104.736709
1944.000000	104.622251
1942.000000	104.576978
1940.000000	104.671346
1938.000000	104.705604
1936.000000	104.687001
1934.000000	104.653832
1932.000000	104.630674
1930.000000	104.603566
1928.000000	104.576263
1926.000000	104.508837
1924.000000	104.395400
1922.000000	104.332791
1920.000000	104.218265
1918.000000	104.069232
1916.000000	104.195049
1914.000000	104.286218
1912.000000	104.224672
1910.000000	104.123078
1908.000000	104.088561
1906.000000	104.069281
1904.000000	104.033743
1902.000000	103.979926
1900.000000	103.936805
1898.000000	103.866171
1896.000000	103.786569
1894.000000	103.751602
1892.000000	103.692793
1890.000000	103.562136
1888.000000	103.613667
1886.000000	103.692978
1884.000000	103.697467
1882.000000	103.681329
1880.000000	103.665362
1878.000000	103.636549
1876.000000	103.618437
1874.000000	103.575792
1872.000000	103.403282
1870.000000	103.052201
1868.000000	103.016790
1866.000000	103.272431
1864.000000	103.407439
1862.000000	103.392934
1860.000000	103.359248
1858.000000	103.327271
1856.000000	103.310355
1854.000000	103.273754
1852.000000	103.234903
1850.000000	103.145532
1848.000000	102.968371
1846.000000	102.473685
1844.000000	102.174159
1842.000000	102.607556
1840.000000	102.903089
1838.000000	102.852026
1836.000000	102.801565
1834.000000	102.725720
1832.000000	102.425052
1830.000000	102.120926
1828.000000	102.195239
1826.000000	102.162636
1824.000000	102.189093
1822.000000	102.336916
1820.000000	102.327523
1818.000000	102.234067
1816.000000	102.176694
1814.000000	102.078418
1812.000000	101.888676
1810.000000	101.775027
1808.000000	101.782424
1806.000000	101.727962
1804.000000	101.535773
1802.000000	101.227886
1800.000000	101.087638
1798.000000	101.119763
1796.000000	100.984961
1794.000000	100.385887
1792.000000	100.060736
1790.000000	100.452089
1788.000000	100.670445
1786.000000	100.444928
1784.000000	100.300665
1782.000000	100.217039
1780.000000	100.118818
1778.000000	100.079528
1776.000000	99.767555
1774.000000	98.909993
1772.000000	98.487275
1770.000000	98.901940
1768.000000	99.144576
1766.000000	99.393726
1764.000000	99.236290
1762.000000	98.840894
1760.000000	98.898216
1758.000000	98.829443
1756.000000	98.698210
1754.000000	98.482856
1752.000000	97.733776
1750.000000	97.498050
1748.000000	97.753534
1746.000000	97.852446
1744.000000	97.715589
1742.000000	97.357478
1740.000000	97.002963
1738.000000	96.979837
1736.000000	96.039487
1734.000000	95.075558
1732.000000	96.007624
1730.000000	96.898556
1728.000000	97.130589
1726.000000	97.136595
1724.000000	97.034476
1722.000000	96.851147
1720.000000	95.941711
1718.000000	94.677070
1716.000000	94.926635
1714.000000	95.879262
1712.000000	96.362629
1710.000000	96.323034
1708.000000	95.978949
1706.000000	95.547508
1704.000000	95.317797
1702.000000	94.136264
1700.000000	93.257230
1698.000000	93.592675
1696.000000	93.508823
1694.000000	94.627812
1692.000000	95.614019
1690.000000	95.550975
1688.000000	95.058452
1686.000000	93.451845
1684.000000	92.840940
1682.000000	94.294670
1680.000000	95.139630
1678.000000	94.966033
1676.000000	94.279200
1674.000000	94.283425
1672.000000	94.358810
1670.000000	93.936705
1668.000000	94.208984
1666.000000	94.608082
1664.000000	94.269875
1662.000000	94.104717
1660.000000	94.383770
1658.000000	94.291875
1656.000000	92.956816
1654.000000	90.465751
1652.000000	90.663121
1650.000000	92.645996
1648.000000	92.521211
1646.000000	92.169760
1644.000000	92.932791
1642.000000	93.382975
1640.000000	93.143513
1638.000000	92.227774
1636.000000	91.153336
1634.000000	91.646298
1632.000000	92.455152
1630.000000	92.298575
1628.000000	91.873033
1626.000000	91.450556
1624.000000	90.811016
1622.000000	90.514895
1620.000000	90.155042
1618.000000	88.887484
1616.000000	88.347745
1614.000000	88.814996
1612.000000	88.528493
1610.000000	87.890656
1608.000000	87.566785
1606.000000	87.616466
1604.000000	87.813421
1602.000000	88.061018
1600.000000	88.309061
1598.000000	88.515122
1596.000000	88.648937
1594.000000	88.763528
1592.000000	88.840006
1590.000000	88.851195
1588.000000	88.819502
1586.000000	88.754106
1584.000000	88.677334
1582.000000	88.622768
1580.000000	88.436880
1578.000000	87.456344
1576.000000	86.763340
1574.000000	87.669919
1572.000000	87.962247
1570.000000	87.452636
1568.000000	87.544499
1566.000000	87.658858
1564.000000	87.336521
1562.000000	86.007000
1560.000000	83.809689
1558.000000	83.846792
1556.000000	85.423004
1554.000000	86.284314
1552.000000	86.938502
1550.000000	87.298234
1548.000000	87.485277
1546.000000	87.275351
1544.000000	86.753792
1542.000000	85.856176
1540.000000	85.356467
1538.000000	86.764790
1536.000000	88.159986
1534.000000	88.167876
1532.000000	88.520045
1530.000000	88.883646
1528.000000	88.657255
1526.000000	88.309183
1524.000000	87.877104
1522.000000	87.067647
1520.000000	87.228236
1518.000000	87.694786
1516.000000	87.730406
1514.000000	87.767905
1512.000000	87.557316
1510.000000	86.921804
1508.000000	85.305653
1506.000000	84.538946
1504.000000	85.298208
1502.000000	84.784759
1500.000000	82.255388
1498.000000	78.802685
1496.000000	76.286890
1494.000000	76.088281
1492.000000	77.171978
1490.000000	78.810593
1488.000000	80.803223
1486.000000	82.517415
1484.000000	83.644308
1482.000000	84.156717
1480.000000	84.392059
1478.000000	84.254903
1476.000000	83.769706
1474.000000	83.051850
1472.000000	82.877379
1470.000000	83.391351
1468.000000	83.347150
1466.000000	82.643835
1464.000000	82.251996
1462.000000	82.083734
1460.000000	80.970853
1458.000000	78.933533
1456.000000	77.953028
1454.000000	78.046814
1452.000000	77.736589
1450.000000	77.787086
1448.000000	78.570030
1446.000000	79.605165
1444.000000	80.148612
1442.000000	80.274745
1440.000000	80.107842
1438.000000	79.491833
1436.000000	79.409774
1434.000000	80.096716
1432.000000	80.250450
1430.000000	80.162252
1428.000000	80.227576
1426.000000	80.248317
1424.000000	80.106747
1422.000000	79.790207
1420.000000	79.061476
1418.000000	79.052951
1416.000000	79.453940
1414.000000	79.422742
1412.000000	79.071840
1410.000000	78.550934
1408.000000	77.789250
1406.000000	76.925829
1404.000000	76.456692
1402.000000	76.492144
1400.000000	76.640026
1398.000000	77.035192
1396.000000	77.377170
1394.000000	77.714752
1392.000000	78.164522
1390.000000	78.170446
1388.000000	77.758301
1386.000000	77.525971
1384.000000	77.527101
1382.000000	77.650228
1380.000000	77.741600
1378.000000	77.674926
1376.000000	77.473624
1374.000000	77.307915
1372.000000	77.322852
1370.000000	77.259628
1368.000000	77.107504
1366.000000	76.943049
1364.000000	76.649912
1362.000000	76.441901
1360.000000	76.408346
1358.000000	76.323521
1356.000000	76.133902
1354.000000	75.930639
1352.000000	75.729392
1350.000000	75.513154
1348.000000	75.295735
1346.000000	75.073429
1344.000000	74.823166
1342.000000	74.516475
1340.000000	74.217860
1338.000000	74.091692
1336.000000	74.059645
1334.000000	73.989783
1332.000000	73.844031
1330.000000	73.654379
1328.000000	73.432888
1326.000000	73.191070
1324.000000	72.926567
1322.000000	72.638774
1320.000000	72.318884
1318.000000	72.017708
1316.000000	71.730848
1314.000000	71.423776
1312.000000	71.116477
1310.000000	70.813673
1308.000000	70.488720
1306.000000	70.161694
1304.000000	69.824143
1302.000000	69.482579
1300.000000	69.137659
1298.000000	68.792297
1296.000000	68.436927
1294.000000	68.074427
1292.000000	67.691735
1290.000000	67.295865
1288.000000	66.893549
1286.000000	66.498803
1284.000000	66.086721
1282.000000	65.654715
1280.000000	65.200742
1278.000000	64.715103
1276.000000	64.174903
1274.000000	63.560786
1272.000000	62.830861
1270.000000	61.947011
1268.000000	60.844253
1266.000000	59.527198
1264.000000	58.155871
1262.000000	57.056208
1260.000000	56.505067
1258.000000	56.512643
1256.000000	56.804145
1254.000000	57.049066
1252.000000	57.047300
1250.000000	56.806313
1248.000000	56.410336
1246.000000	55.938205
1244.000000	55.429491
1242.000000	54.917514
1240.000000	54.409894
1238.000000	53.917507
1236.000000	53.439175
1234.000000	52.977565
1232.000000	52.521681
1230.000000	52.074948
1228.000000	51.629770
1226.000000	51.179950
1224.000000	50.719926
1222.000000	50.250436
1220.000000	49.758783
1218.000000	49.248328
1216.000000	48.726213
1214.000000	48.212599
1212.000000	47.719577
1210.000000	47.265899
1208.000000	46.847581
1206.000000	46.451286
1204.000000	46.054126
1202.000000	45.656512
1200.000000	45.262768
1198.000000	44.876326
1196.000000	44.483852
1194.000000	44.079467
1192.000000	43.660788
1190.000000	43.232326
1188.000000	42.788790
1186.000000	42.318054
1184.000000	41.734490
1182.000000	41.007332
1180.000000	40.440425
1178.000000	40.192887
1176.000000	39.961841
1174.000000	39.606049
1172.000000	39.180143
1170.000000	38.732683
1168.000000	38.267008
1166.000000	37.793097
1164.000000	37.321727
1162.000000	36.860937
1160.000000	36.405223
1158.000000	35.971156
1156.000000	35.551064
1154.000000	35.132068
1152.000000	34.703486
1150.000000	34.281868
1148.000000	33.852578
1146.000000	33.415552
1144.000000	32.987390
1142.000000	32.610225
1140.000000	32.298713
1138.000000	31.987776
1136.000000	31.628093
1134.000000	31.235964
1132.000000	30.821190
1130.000000	30.395032
1128.000000	29.971226
1126.000000	29.553933
1124.000000	29.124975
1122.000000	28.687902
1120.000000	28.239911
1118.000000	27.781828
1116.000000	27.315415
1114.000000	26.848219
1112.000000	26.379838
1110.000000	25.918317
1108.000000	25.464499
1106.000000	25.028828
1104.000000	24.610878
1102.000000	24.202293
1100.000000	23.789421
1098.000000	23.381331
1096.000000	22.984166
1094.000000	22.602912
1092.000000	22.235100
1090.000000	21.883720
1088.000000	21.540229
1086.000000	21.203441
1084.000000	20.857170
1082.000000	20.499397
1080.000000	20.159404
1078.000000	19.857963
1076.000000	19.582236
1074.000000	19.348494
1072.000000	19.132504
1070.000000	18.909057
1068.000000	18.678029
1066.000000	18.447896
1064.000000	18.216615
1062.000000	17.984413
1060.000000	17.737240
1058.000000	17.450377
1056.000000	17.059760
1054.000000	16.546752
1052.000000	16.040601
1050.000000	15.742126
1048.000000	15.707516
1046.000000	15.790339
1044.000000	15.792493
1042.000000	15.677138
1040.000000	15.491250
1038.000000	15.276948
1036.000000	15.050142
1034.000000	14.815392
1032.000000	14.567866
1030.000000	14.309954
1028.000000	14.044828
1026.000000	13.776352
1024.000000	13.501819
1022.000000	13.232332
1020.000000	12.978457
1018.000000	12.746705
1016.000000	12.531838
1014.000000	12.340193
1012.000000	12.170696
1010.000000	12.012668
1008.000000	11.848227
1006.000000	11.671255
1004.000000	11.476348
1002.000000	11.266056
1000.000000	11.037107
