PE IR       SUBTECH     SPECTRUM    ASCII       PEDS        4.00        
   -1
TE110A_039_110K_BG.ASC
20/05/14
13:02:31.00
20/05/14
13:02:31.00
Administrator
TE110A.Thursday, May 14 2020, 008.
1000.000000
#HDR
-1
-1
#GR
cm-1
EGY
1.0
0.0
6000.000000
-2.000000
2501
8
105.412470
11.019935
#DATA
6000.000000	16.620110
5998.000000	16.652337
5996.000000	16.683912
5994.000000	16.716309
5992.000000	16.749946
5990.000000	16.783341
5988.000000	16.815756
5986.000000	16.848418
5984.000000	16.881494
5982.000000	16.915559
5980.000000	16.949094
5978.000000	16.981296
5976.000000	17.013123
5974.000000	17.045799
5972.000000	17.079897
5970.000000	17.114491
5968.000000	17.147974
5966.000000	17.181214
5964.000000	17.215515
5962.000000	17.251324
5960.000000	17.286994
5958.000000	17.321790
5956.000000	17.355340
5954.000000	17.388719
5952.000000	17.422113
5950.000000	17.456492
5948.000000	17.491424
5946.000000	17.525049
5944.000000	17.558530
5942.000000	17.593290
5940.000000	17.628172
5938.000000	17.661559
5936.000000	17.693650
5934.000000	17.726089
5932.000000	17.759767
5930.000000	17.794740
5928.000000	17.829471
5926.000000	17.864019
5924.000000	17.898411
5922.000000	17.934018
5920.000000	17.970604
5918.000000	18.006995
5916.000000	18.042597
5914.000000	18.078654
5912.000000	18.115432
5910.000000	18.152201
5908.000000	18.188419
5906.000000	18.224680
5904.000000	18.260385
5902.000000	18.296607
5900.000000	18.332676
5898.000000	18.369333
5896.000000	18.405983
5894.000000	18.442544
5892.000000	18.478217
5890.000000	18.514255
5888.000000	18.550537
5886.000000	18.587313
5884.000000	18.623439
5882.000000	18.658880
5880.000000	18.694453
5878.000000	18.730249
5876.000000	18.765552
5874.000000	18.801405
5872.000000	18.837758
5870.000000	18.875497
5868.000000	18.913422
5866.000000	18.951128
5864.000000	18.987756
5862.000000	19.023816
5860.000000	19.060135
5858.000000	19.097590
5856.000000	19.136130
5854.000000	19.174756
5852.000000	19.212859
5850.000000	19.251745
5848.000000	19.291090
5846.000000	19.331613
5844.000000	19.371736
5842.000000	19.410763
5840.000000	19.450414
5838.000000	19.491979
5836.000000	19.534632
5834.000000	19.577063
5832.000000	19.618271
5830.000000	19.659117
5828.000000	19.700893
5826.000000	19.742477
5824.000000	19.783266
5822.000000	19.823786
5820.000000	19.863796
5818.000000	19.904468
5816.000000	19.944977
5814.000000	19.985516
5812.000000	20.026722
5810.000000	20.067542
5808.000000	20.107481
5806.000000	20.147445
5804.000000	20.187104
5802.000000	20.227748
5800.000000	20.268119
5798.000000	20.309238
5796.000000	20.351188
5794.000000	20.393420
5792.000000	20.434793
5790.000000	20.474342
5788.000000	20.513590
5786.000000	20.554506
5784.000000	20.596134
5782.000000	20.638088
5780.000000	20.678829
5778.000000	20.721034
5776.000000	20.763761
5774.000000	20.806360
5772.000000	20.848227
5770.000000	20.889897
5768.000000	20.931956
5766.000000	20.973309
5764.000000	21.014347
5762.000000	21.055837
5760.000000	21.097488
5758.000000	21.139795
5756.000000	21.182444
5754.000000	21.225124
5752.000000	21.267476
5750.000000	21.309038
5748.000000	21.350002
5746.000000	21.390575
5744.000000	21.430913
5742.000000	21.471620
5740.000000	21.512356
5738.000000	21.553166
5736.000000	21.593913
5734.000000	21.633905
5732.000000	21.673633
5730.000000	21.713806
5728.000000	21.754840
5726.000000	21.796588
5724.000000	21.838142
5722.000000	21.879833
5720.000000	21.921254
5718.000000	21.963548
5716.000000	22.006991
5714.000000	22.050924
5712.000000	22.094383
5710.000000	22.137600
5708.000000	22.180955
5706.000000	22.224976
5704.000000	22.269181
5702.000000	22.314050
5700.000000	22.357978
5698.000000	22.401980
5696.000000	22.446241
5694.000000	22.491896
5692.000000	22.538223
5690.000000	22.582936
5688.000000	22.627334
5686.000000	22.671982
5684.000000	22.717946
5682.000000	22.763731
5680.000000	22.808373
5678.000000	22.852634
5676.000000	22.897056
5674.000000	22.942471
5672.000000	22.988167
5670.000000	23.034266
5668.000000	23.079955
5666.000000	23.125254
5664.000000	23.169775
5662.000000	23.214339
5660.000000	23.258957
5658.000000	23.305071
5656.000000	23.350698
5654.000000	23.396598
5652.000000	23.441730
5650.000000	23.487106
5648.000000	23.532717
5646.000000	23.578259
5644.000000	23.624929
5642.000000	23.671489
5640.000000	23.716963
5638.000000	23.761497
5636.000000	23.806324
5634.000000	23.852395
5632.000000	23.897251
5630.000000	23.941271
5628.000000	23.986435
5626.000000	24.032426
5624.000000	24.077602
5622.000000	24.122059
5620.000000	24.166485
5618.000000	24.211506
5616.000000	24.256643
5614.000000	24.302529
5612.000000	24.348774
5610.000000	24.394512
5608.000000	24.439384
5606.000000	24.484933
5604.000000	24.531267
5602.000000	24.578091
5600.000000	24.623757
5598.000000	24.669271
5596.000000	24.714715
5594.000000	24.761115
5592.000000	24.807782
5590.000000	24.855097
5588.000000	24.901821
5586.000000	24.948102
5584.000000	24.993723
5582.000000	25.040082
5580.000000	25.087026
5578.000000	25.134500
5576.000000	25.182655
5574.000000	25.230385
5572.000000	25.277348
5570.000000	25.325147
5568.000000	25.373086
5566.000000	25.421481
5564.000000	25.468465
5562.000000	25.515108
5560.000000	25.562985
5558.000000	25.610732
5556.000000	25.657773
5554.000000	25.703879
5552.000000	25.750368
5550.000000	25.798593
5548.000000	25.846798
5546.000000	25.895799
5544.000000	25.944030
5542.000000	25.990750
5540.000000	26.035758
5538.000000	26.080843
5536.000000	26.128302
5534.000000	26.177998
5532.000000	26.227305
5530.000000	26.275050
5528.000000	26.321240
5526.000000	26.366519
5524.000000	26.412197
5522.000000	26.459030
5520.000000	26.506263
5518.000000	26.554053
5516.000000	26.602215
5514.000000	26.650627
5512.000000	26.696328
5510.000000	26.739701
5508.000000	26.784819
5506.000000	26.833499
5504.000000	26.884300
5502.000000	26.933806
5500.000000	26.982491
5498.000000	27.027668
5496.000000	27.067968
5494.000000	27.107921
5492.000000	27.152562
5490.000000	27.204787
5488.000000	27.261039
5486.000000	27.318218
5484.000000	27.374083
5482.000000	27.426192
5480.000000	27.468690
5478.000000	27.501669
5476.000000	27.540168
5474.000000	27.592919
5472.000000	27.653455
5470.000000	27.706954
5468.000000	27.753275
5466.000000	27.798191
5464.000000	27.841039
5462.000000	27.886115
5460.000000	27.938070
5458.000000	27.995752
5456.000000	28.053579
5454.000000	28.104188
5452.000000	28.147165
5450.000000	28.183088
5448.000000	28.218436
5446.000000	28.261285
5444.000000	28.309724
5442.000000	28.365623
5440.000000	28.421414
5438.000000	28.469673
5436.000000	28.513971
5434.000000	28.558729
5432.000000	28.603599
5430.000000	28.649847
5428.000000	28.705474
5426.000000	28.773319
5424.000000	28.837869
5422.000000	28.893861
5420.000000	28.943448
5418.000000	28.977528
5416.000000	28.998176
5414.000000	29.023913
5412.000000	29.072349
5410.000000	29.141109
5408.000000	29.211246
5406.000000	29.274869
5404.000000	29.330577
5402.000000	29.381904
5400.000000	29.425873
5398.000000	29.459390
5396.000000	29.491291
5394.000000	29.538829
5392.000000	29.602763
5390.000000	29.664402
5388.000000	29.710836
5386.000000	29.756556
5384.000000	29.813645
5382.000000	29.871391
5380.000000	29.910157
5378.000000	29.942850
5376.000000	29.990961
5374.000000	30.059034
5372.000000	30.129501
5370.000000	30.190126
5368.000000	30.239835
5366.000000	30.284102
5364.000000	30.331043
5362.000000	30.385758
5360.000000	30.441387
5358.000000	30.483607
5356.000000	30.512328
5354.000000	30.548232
5352.000000	30.601473
5350.000000	30.658624
5348.000000	30.696214
5346.000000	30.730014
5344.000000	30.778762
5342.000000	30.832291
5340.000000	30.878751
5338.000000	30.930200
5336.000000	30.998186
5334.000000	31.068670
5332.000000	31.124264
5330.000000	31.168549
5328.000000	31.216100
5326.000000	31.273675
5324.000000	31.338173
5322.000000	31.397913
5320.000000	31.449743
5318.000000	31.498586
5316.000000	31.547689
5314.000000	31.599053
5312.000000	31.647327
5310.000000	31.689468
5308.000000	31.733574
5306.000000	31.787055
5304.000000	31.844998
5302.000000	31.899515
5300.000000	31.951898
5298.000000	32.005629
5296.000000	32.057032
5294.000000	32.099240
5292.000000	32.139409
5290.000000	32.188844
5288.000000	32.245832
5286.000000	32.303227
5284.000000	32.356287
5282.000000	32.410813
5280.000000	32.467612
5278.000000	32.524833
5276.000000	32.580463
5274.000000	32.631280
5272.000000	32.677061
5270.000000	32.720654
5268.000000	32.757871
5266.000000	32.792252
5264.000000	32.835540
5262.000000	32.899219
5260.000000	32.969429
5258.000000	33.024167
5256.000000	33.068953
5254.000000	33.119922
5252.000000	33.170909
5250.000000	33.212674
5248.000000	33.252405
5246.000000	33.305817
5244.000000	33.373179
5242.000000	33.442978
5240.000000	33.507795
5238.000000	33.562675
5236.000000	33.610340
5234.000000	33.655047
5232.000000	33.702570
5230.000000	33.750278
5228.000000	33.792617
5226.000000	33.836933
5224.000000	33.894215
5222.000000	33.959266
5220.000000	34.018609
5218.000000	34.074378
5216.000000	34.131469
5214.000000	34.185976
5212.000000	34.228054
5210.000000	34.256233
5208.000000	34.287429
5206.000000	34.342879
5204.000000	34.419187
5202.000000	34.491636
5200.000000	34.545368
5198.000000	34.594141
5196.000000	34.649689
5194.000000	34.709444
5192.000000	34.764913
5190.000000	34.815591
5188.000000	34.863381
5186.000000	34.913114
5184.000000	34.968335
5182.000000	35.028062
5180.000000	35.086498
5178.000000	35.143568
5176.000000	35.200264
5174.000000	35.254803
5172.000000	35.308021
5170.000000	35.363419
5168.000000	35.418379
5166.000000	35.469809
5164.000000	35.521280
5162.000000	35.576875
5160.000000	35.632568
5158.000000	35.685341
5156.000000	35.738233
5154.000000	35.794499
5152.000000	35.852334
5150.000000	35.909565
5148.000000	35.964303
5146.000000	36.016254
5144.000000	36.067026
5142.000000	36.120645
5140.000000	36.176644
5138.000000	36.232659
5136.000000	36.286394
5134.000000	36.339899
5132.000000	36.394118
5130.000000	36.449598
5128.000000	36.504670
5126.000000	36.558315
5124.000000	36.610255
5122.000000	36.663011
5120.000000	36.717418
5118.000000	36.773173
5116.000000	36.828522
5114.000000	36.883425
5112.000000	36.937531
5110.000000	36.991573
5108.000000	37.045961
5106.000000	37.101009
5104.000000	37.156467
5102.000000	37.212165
5100.000000	37.267770
5098.000000	37.323122
5096.000000	37.378507
5094.000000	37.435405
5092.000000	37.492732
5090.000000	37.550532
5088.000000	37.607270
5086.000000	37.662950
5084.000000	37.718678
5082.000000	37.776346
5080.000000	37.834236
5078.000000	37.890143
5076.000000	37.944941
5074.000000	38.000950
5072.000000	38.058036
5070.000000	38.115947
5068.000000	38.172571
5066.000000	38.228401
5064.000000	38.284305
5062.000000	38.340971
5060.000000	38.397032
5058.000000	38.453212
5056.000000	38.509684
5054.000000	38.565027
5052.000000	38.620056
5050.000000	38.676739
5048.000000	38.733407
5046.000000	38.788451
5044.000000	38.843548
5042.000000	38.900363
5040.000000	38.957740
5038.000000	39.014112
5036.000000	39.069284
5034.000000	39.124251
5032.000000	39.179604
5030.000000	39.235777
5028.000000	39.292182
5026.000000	39.348440
5024.000000	39.403808
5022.000000	39.459648
5020.000000	39.516134
5018.000000	39.573244
5016.000000	39.629908
5014.000000	39.686777
5012.000000	39.743590
5010.000000	39.800648
5008.000000	39.856804
5006.000000	39.912808
5004.000000	39.968925
5002.000000	40.026168
5000.000000	40.084028
4998.000000	40.143142
4996.000000	40.201300
4994.000000	40.258957
4992.000000	40.317020
4990.000000	40.376445
4988.000000	40.434685
4986.000000	40.491416
4984.000000	40.549013
4982.000000	40.608368
4980.000000	40.666878
4978.000000	40.724006
4976.000000	40.781446
4974.000000	40.839973
4972.000000	40.897983
4970.000000	40.955412
4968.000000	41.012676
4966.000000	41.070989
4964.000000	41.129918
4962.000000	41.188391
4960.000000	41.245566
4958.000000	41.302415
4956.000000	41.359442
4954.000000	41.416104
4952.000000	41.471924
4950.000000	41.527757
4948.000000	41.584773
4946.000000	41.642919
4944.000000	41.700152
4942.000000	41.756782
4940.000000	41.813175
4938.000000	41.869504
4936.000000	41.925135
4934.000000	41.981446
4932.000000	42.038648
4930.000000	42.095614
4928.000000	42.152671
4926.000000	42.210411
4924.000000	42.268351
4922.000000	42.325033
4920.000000	42.380810
4918.000000	42.438087
4916.000000	42.496324
4914.000000	42.554907
4912.000000	42.612878
4910.000000	42.671502
4908.000000	42.729833
4906.000000	42.787441
4904.000000	42.844798
4902.000000	42.903780
4900.000000	42.963307
4898.000000	43.022610
4896.000000	43.081686
4894.000000	43.141015
4892.000000	43.199093
4890.000000	43.257694
4888.000000	43.318047
4886.000000	43.378650
4884.000000	43.437380
4882.000000	43.495241
4880.000000	43.553917
4878.000000	43.613908
4876.000000	43.674454
4874.000000	43.734348
4872.000000	43.793012
4870.000000	43.851678
4868.000000	43.910348
4866.000000	43.968775
4864.000000	44.026363
4862.000000	44.084900
4860.000000	44.143790
4858.000000	44.202021
4856.000000	44.258814
4854.000000	44.316408
4852.000000	44.374233
4850.000000	44.432288
4848.000000	44.490697
4846.000000	44.549095
4844.000000	44.606015
4842.000000	44.663451
4840.000000	44.721571
4838.000000	44.779307
4836.000000	44.836449
4834.000000	44.894594
4832.000000	44.952588
4830.000000	45.010659
4828.000000	45.068321
4826.000000	45.126333
4824.000000	45.183802
4822.000000	45.241052
4820.000000	45.298270
4818.000000	45.356722
4816.000000	45.415443
4814.000000	45.475364
4812.000000	45.535995
4810.000000	45.595640
4808.000000	45.653896
4806.000000	45.712949
4804.000000	45.772815
4802.000000	45.832869
4800.000000	45.892283
4798.000000	45.951925
4796.000000	46.012308
4794.000000	46.073602
4792.000000	46.134493
4790.000000	46.196184
4788.000000	46.257133
4786.000000	46.317467
4784.000000	46.378313
4782.000000	46.440236
4780.000000	46.500449
4778.000000	46.559611
4776.000000	46.619030
4774.000000	46.678753
4772.000000	46.737907
4770.000000	46.797079
4768.000000	46.855898
4766.000000	46.914456
4764.000000	46.972258
4762.000000	47.030482
4760.000000	47.089826
4758.000000	47.149468
4756.000000	47.208232
4754.000000	47.266373
4752.000000	47.323821
4750.000000	47.382281
4748.000000	47.441076
4746.000000	47.499511
4744.000000	47.557891
4742.000000	47.616820
4740.000000	47.674180
4738.000000	47.731548
4736.000000	47.790185
4734.000000	47.849069
4732.000000	47.906781
4730.000000	47.964696
4728.000000	48.022701
4726.000000	48.082042
4724.000000	48.142381
4722.000000	48.202242
4720.000000	48.260614
4718.000000	48.321176
4716.000000	48.383733
4714.000000	48.446153
4712.000000	48.508211
4710.000000	48.570905
4708.000000	48.633562
4706.000000	48.695672
4704.000000	48.757455
4702.000000	48.820649
4700.000000	48.885194
4698.000000	48.949272
4696.000000	49.011558
4694.000000	49.073250
4692.000000	49.134202
4690.000000	49.195472
4688.000000	49.256476
4686.000000	49.317873
4684.000000	49.379536
4682.000000	49.441532
4680.000000	49.502131
4678.000000	49.562866
4676.000000	49.624254
4674.000000	49.686637
4672.000000	49.748420
4670.000000	49.809551
4668.000000	49.869807
4666.000000	49.930992
4664.000000	49.992980
4662.000000	50.054855
4660.000000	50.115265
4658.000000	50.176024
4656.000000	50.237431
4654.000000	50.298450
4652.000000	50.359240
4650.000000	50.422177
4648.000000	50.484920
4646.000000	50.544987
4644.000000	50.603762
4642.000000	50.664191
4640.000000	50.725544
4638.000000	50.787473
4636.000000	50.848693
4634.000000	50.909167
4632.000000	50.969506
4630.000000	51.031369
4628.000000	51.093072
4626.000000	51.154211
4624.000000	51.214613
4622.000000	51.276020
4620.000000	51.338306
4618.000000	51.401832
4616.000000	51.464587
4614.000000	51.526983
4612.000000	51.590366
4610.000000	51.656017
4608.000000	51.721168
4606.000000	51.785314
4604.000000	51.849995
4602.000000	51.916430
4600.000000	51.981945
4598.000000	52.046853
4596.000000	52.111687
4594.000000	52.176791
4592.000000	52.241290
4590.000000	52.305990
4588.000000	52.369398
4586.000000	52.432917
4584.000000	52.496964
4582.000000	52.561682
4580.000000	52.625570
4578.000000	52.690216
4576.000000	52.754503
4574.000000	52.818712
4572.000000	52.882424
4570.000000	52.946930
4568.000000	53.010702
4566.000000	53.074343
4564.000000	53.137247
4562.000000	53.200214
4560.000000	53.262991
4558.000000	53.326784
4556.000000	53.390163
4554.000000	53.452324
4552.000000	53.513948
4550.000000	53.576594
4548.000000	53.638979
4546.000000	53.701935
4544.000000	53.765118
4542.000000	53.826840
4540.000000	53.887950
4538.000000	53.951672
4536.000000	54.015939
4534.000000	54.079705
4532.000000	54.143325
4530.000000	54.207551
4528.000000	54.270470
4526.000000	54.332661
4524.000000	54.394921
4522.000000	54.458801
4520.000000	54.523029
4518.000000	54.587544
4516.000000	54.651218
4514.000000	54.715063
4512.000000	54.779617
4510.000000	54.845909
4508.000000	54.911436
4506.000000	54.976742
4504.000000	55.042578
4502.000000	55.109224
4500.000000	55.175152
4498.000000	55.241369
4496.000000	55.306646
4494.000000	55.372353
4492.000000	55.437925
4490.000000	55.502832
4488.000000	55.566087
4486.000000	55.630169
4484.000000	55.694830
4482.000000	55.760010
4480.000000	55.823825
4478.000000	55.888109
4476.000000	55.951797
4474.000000	56.015093
4472.000000	56.077482
4470.000000	56.140649
4468.000000	56.203939
4466.000000	56.267599
4464.000000	56.330331
4462.000000	56.392850
4460.000000	56.454793
4458.000000	56.517872
4456.000000	56.581073
4454.000000	56.643466
4452.000000	56.704269
4450.000000	56.765683
4448.000000	56.827478
4446.000000	56.890209
4444.000000	56.953207
4442.000000	57.016632
4440.000000	57.078206
4438.000000	57.139845
4436.000000	57.202042
4434.000000	57.265075
4432.000000	57.328337
4430.000000	57.392831
4428.000000	57.456517
4426.000000	57.520374
4424.000000	57.583829
4422.000000	57.647561
4420.000000	57.710522
4418.000000	57.773487
4416.000000	57.836470
4414.000000	57.901179
4412.000000	57.965935
4410.000000	58.031255
4408.000000	58.096922
4406.000000	58.162456
4404.000000	58.226059
4402.000000	58.289805
4400.000000	58.353141
4398.000000	58.416235
4396.000000	58.480163
4394.000000	58.544934
4392.000000	58.607878
4390.000000	58.671022
4388.000000	58.732901
4386.000000	58.793475
4384.000000	58.854697
4382.000000	58.917443
4380.000000	58.978598
4378.000000	59.039444
4376.000000	59.100045
4374.000000	59.160466
4372.000000	59.219781
4370.000000	59.280034
4368.000000	59.340344
4366.000000	59.400532
4364.000000	59.460112
4362.000000	59.521254
4360.000000	59.583210
4358.000000	59.645426
4356.000000	59.707076
4354.000000	59.770333
4352.000000	59.833500
4350.000000	59.897076
4348.000000	59.960204
4346.000000	60.022923
4344.000000	60.085021
4342.000000	60.148841
4340.000000	60.212757
4338.000000	60.276437
4336.000000	60.339111
4334.000000	60.402786
4332.000000	60.467170
4330.000000	60.532381
4328.000000	60.597338
4326.000000	60.662809
4324.000000	60.727778
4322.000000	60.793931
4320.000000	60.861051
4318.000000	60.928761
4316.000000	60.996181
4314.000000	61.065100
4312.000000	61.133060
4310.000000	61.199747
4308.000000	61.266433
4306.000000	61.334065
4304.000000	61.399697
4302.000000	61.465483
4300.000000	61.532060
4298.000000	61.598060
4296.000000	61.661810
4294.000000	61.725845
4292.000000	61.789194
4290.000000	61.852601
4288.000000	61.915965
4286.000000	61.979211
4284.000000	62.040378
4282.000000	62.101200
4280.000000	62.161334
4278.000000	62.221370
4276.000000	62.280574
4274.000000	62.339209
4272.000000	62.396939
4270.000000	62.456703
4268.000000	62.516909
4266.000000	62.576943
4264.000000	62.637285
4262.000000	62.699237
4260.000000	62.761482
4258.000000	62.825128
4256.000000	62.889112
4254.000000	62.953560
4252.000000	63.017471
4250.000000	63.081078
4248.000000	63.143492
4246.000000	63.206882
4244.000000	63.270268
4242.000000	63.333822
4240.000000	63.398442
4238.000000	63.464591
4236.000000	63.529588
4234.000000	63.594744
4232.000000	63.659687
4230.000000	63.724062
4228.000000	63.786507
4226.000000	63.848905
4224.000000	63.912835
4222.000000	63.978016
4220.000000	64.041587
4218.000000	64.105968
4216.000000	64.170775
4214.000000	64.235919
4212.000000	64.301047
4210.000000	64.366408
4208.000000	64.431535
4206.000000	64.499588
4204.000000	64.568974
4202.000000	64.638011
4200.000000	64.704851
4198.000000	64.771854
4196.000000	64.840114
4194.000000	64.910271
4192.000000	64.979647
4190.000000	65.048312
4188.000000	65.115383
4186.000000	65.182019
4184.000000	65.248232
4182.000000	65.315275
4180.000000	65.381562
4178.000000	65.447319
4176.000000	65.511851
4174.000000	65.576491
4172.000000	65.640685
4170.000000	65.705155
4168.000000	65.768791
4166.000000	65.832973
4164.000000	65.896997
4162.000000	65.960864
4160.000000	66.023851
4158.000000	66.087984
4156.000000	66.152297
4154.000000	66.217780
4152.000000	66.283186
4150.000000	66.348301
4148.000000	66.412835
4146.000000	66.478282
4144.000000	66.543161
4142.000000	66.607793
4140.000000	66.672419
4138.000000	66.738437
4136.000000	66.803853
4134.000000	66.869525
4132.000000	66.935099
4130.000000	67.000741
4128.000000	67.066405
4126.000000	67.133239
4124.000000	67.198852
4122.000000	67.264779
4120.000000	67.331870
4118.000000	67.399018
4116.000000	67.464937
4114.000000	67.531824
4112.000000	67.597294
4110.000000	67.660953
4108.000000	67.723150
4106.000000	67.787177
4104.000000	67.853078
4102.000000	67.919438
4100.000000	67.983741
4098.000000	68.047932
4096.000000	68.112105
4094.000000	68.176470
4092.000000	68.240491
4090.000000	68.306258
4088.000000	68.373886
4086.000000	68.444548
4084.000000	68.515425
4082.000000	68.584215
4080.000000	68.650313
4078.000000	68.717620
4076.000000	68.785682
4074.000000	68.853217
4072.000000	68.918590
4070.000000	68.982565
4068.000000	69.045658
4066.000000	69.110558
4064.000000	69.176243
4062.000000	69.242105
4060.000000	69.306845
4058.000000	69.371996
4056.000000	69.436985
4054.000000	69.501568
4052.000000	69.564939
4050.000000	69.629188
4048.000000	69.690718
4046.000000	69.750090
4044.000000	69.814853
4042.000000	69.886390
4040.000000	69.956291
4038.000000	70.024254
4036.000000	70.091465
4034.000000	70.158276
4032.000000	70.224035
4030.000000	70.290133
4028.000000	70.354810
4026.000000	70.421069
4024.000000	70.490576
4022.000000	70.559546
4020.000000	70.626234
4018.000000	70.695305
4016.000000	70.765150
4014.000000	70.834306
4012.000000	70.901019
4010.000000	70.966259
4008.000000	71.034399
4006.000000	71.107294
4004.000000	71.178636
4002.000000	71.247667
4000.000000	71.315369
3998.000000	71.379130
3996.000000	71.438456
3994.000000	71.500291
3992.000000	71.564330
3990.000000	71.631446
3988.000000	71.701041
3986.000000	71.767312
3984.000000	71.828073
3982.000000	71.889739
3980.000000	71.952321
3978.000000	72.009846
3976.000000	72.062874
3974.000000	72.122183
3972.000000	72.187818
3970.000000	72.255579
3968.000000	72.324673
3966.000000	72.387771
3964.000000	72.435419
3962.000000	72.484925
3960.000000	72.550166
3958.000000	72.620058
3956.000000	72.683344
3954.000000	72.733891
3952.000000	72.759704
3950.000000	72.781056
3948.000000	72.838334
3946.000000	72.906244
3944.000000	72.949172
3942.000000	73.025267
3940.000000	73.145875
3938.000000	73.242128
3936.000000	73.267596
3934.000000	73.240781
3932.000000	73.263983
3930.000000	73.379901
3928.000000	73.479159
3926.000000	73.518700
3924.000000	73.571194
3922.000000	73.622190
3920.000000	73.613990
3918.000000	73.633719
3916.000000	73.786136
3914.000000	73.989922
3912.000000	74.121970
3910.000000	74.169579
3908.000000	74.073650
3906.000000	73.802467
3904.000000	73.571343
3902.000000	73.577486
3900.000000	73.811065
3898.000000	74.182696
3896.000000	74.449835
3894.000000	74.404152
3892.000000	74.289708
3890.000000	74.363623
3888.000000	74.344670
3886.000000	74.258272
3884.000000	74.407034
3882.000000	74.575780
3880.000000	74.718520
3878.000000	74.913629
3876.000000	74.951907
3874.000000	74.803292
3872.000000	74.523538
3870.000000	74.420608
3868.000000	74.654711
3866.000000	74.839363
3864.000000	74.965449
3862.000000	75.225382
3860.000000	75.438629
3858.000000	75.131406
3856.000000	74.053858
3854.000000	73.303496
3852.000000	73.963703
3850.000000	75.206135
3848.000000	75.884921
3846.000000	75.967594
3844.000000	75.835848
3842.000000	75.594927
3840.000000	75.152809
3838.000000	74.937575
3836.000000	75.318390
3834.000000	75.821924
3832.000000	76.123037
3830.000000	76.345673
3828.000000	76.481331
3826.000000	76.491847
3824.000000	76.240930
3822.000000	75.927637
3820.000000	75.930302
3818.000000	75.906550
3816.000000	75.973312
3814.000000	76.553524
3812.000000	77.061310
3810.000000	76.971412
3808.000000	76.640365
3806.000000	76.600490
3804.000000	76.496772
3802.000000	76.276507
3800.000000	76.587628
3798.000000	77.109221
3796.000000	77.419302
3794.000000	77.667601
3792.000000	77.840280
3790.000000	77.916103
3788.000000	77.939135
3786.000000	77.946819
3784.000000	77.974336
3782.000000	77.955980
3780.000000	77.931331
3778.000000	78.065384
3776.000000	78.259463
3774.000000	78.297467
3772.000000	78.137127
3770.000000	78.024244
3768.000000	78.114524
3766.000000	78.277549
3764.000000	78.424054
3762.000000	78.430141
3760.000000	78.348857
3758.000000	78.389776
3756.000000	78.284723
3754.000000	77.645133
3752.000000	76.944771
3750.000000	76.955056
3748.000000	77.224607
3746.000000	76.981452
3744.000000	77.152358
3742.000000	78.147084
3740.000000	78.668309
3738.000000	78.387523
3736.000000	78.112851
3734.000000	78.228859
3732.000000	78.632691
3730.000000	79.104380
3728.000000	79.306719
3726.000000	79.327126
3724.000000	79.399833
3722.000000	79.530201
3720.000000	79.701413
3718.000000	79.847320
3716.000000	79.772414
3714.000000	79.365626
3712.000000	79.090642
3710.000000	79.360278
3708.000000	79.866198
3706.000000	80.166838
3704.000000	80.161166
3702.000000	80.124898
3700.000000	80.283234
3698.000000	80.468627
3696.000000	80.520422
3694.000000	80.368776
3692.000000	79.908929
3690.000000	79.391171
3688.000000	79.520953
3686.000000	80.248235
3684.000000	80.742328
3682.000000	80.792205
3680.000000	80.530107
3678.000000	79.887459
3676.000000	79.414045
3674.000000	79.590937
3672.000000	79.724511
3670.000000	79.861565
3668.000000	80.469923
3666.000000	81.038073
3664.000000	81.249848
3662.000000	81.282827
3660.000000	81.168586
3658.000000	80.882413
3656.000000	80.772822
3654.000000	80.793208
3652.000000	80.370403
3650.000000	79.876225
3648.000000	80.100606
3646.000000	80.799526
3644.000000	81.292346
3642.000000	81.457311
3640.000000	81.498459
3638.000000	81.501809
3636.000000	81.453667
3634.000000	81.317272
3632.000000	80.866471
3630.000000	80.287835
3628.000000	80.427678
3626.000000	81.115011
3624.000000	81.452628
3622.000000	81.266126
3620.000000	80.989426
3618.000000	81.035319
3616.000000	81.195395
3614.000000	81.175645
3612.000000	81.068591
3610.000000	80.995475
3608.000000	81.123332
3606.000000	81.413661
3604.000000	81.574891
3602.000000	81.563029
3600.000000	81.525096
3598.000000	81.490077
3596.000000	81.443409
3594.000000	81.456375
3592.000000	81.439535
3590.000000	81.224161
3588.000000	81.049880
3586.000000	81.203048
3584.000000	81.467527
3582.000000	81.585776
3580.000000	81.596381
3578.000000	81.592273
3576.000000	81.592091
3574.000000	81.591212
3572.000000	81.525036
3570.000000	81.296261
3568.000000	81.066224
3566.000000	81.118648
3564.000000	81.335219
3562.000000	81.461583
3560.000000	81.502513
3558.000000	81.526556
3556.000000	81.514063
3554.000000	81.459790
3552.000000	81.429396
3550.000000	81.414534
3548.000000	81.342977
3546.000000	81.289575
3544.000000	81.337588
3542.000000	81.414797
3540.000000	81.435336
3538.000000	81.402685
3536.000000	81.375226
3534.000000	81.368970
3532.000000	81.333695
3530.000000	81.260184
3528.000000	81.191513
3526.000000	81.143213
3524.000000	81.109521
3522.000000	81.106802
3520.000000	81.111373
3518.000000	81.094986
3516.000000	81.064665
3514.000000	81.018519
3512.000000	80.952468
3510.000000	80.891326
3508.000000	80.854462
3506.000000	80.793487
3504.000000	80.703150
3502.000000	80.656742
3500.000000	80.643676
3498.000000	80.603120
3496.000000	80.546406
3494.000000	80.500952
3492.000000	80.453242
3490.000000	80.391180
3488.000000	80.332647
3486.000000	80.290073
3484.000000	80.243650
3482.000000	80.200497
3480.000000	80.189388
3478.000000	80.196012
3476.000000	80.196182
3474.000000	80.199408
3472.000000	80.208365
3470.000000	80.211999
3468.000000	80.221012
3466.000000	80.250425
3464.000000	80.287890
3462.000000	80.324797
3460.000000	80.367810
3458.000000	80.410360
3456.000000	80.445149
3454.000000	80.474324
3452.000000	80.494211
3450.000000	80.491750
3448.000000	80.481751
3446.000000	80.508626
3444.000000	80.564324
3442.000000	80.628265
3440.000000	80.705946
3438.000000	80.791428
3436.000000	80.888185
3434.000000	81.009915
3432.000000	81.151121
3430.000000	81.295355
3428.000000	81.439436
3426.000000	81.577034
3424.000000	81.695339
3422.000000	81.797237
3420.000000	81.907069
3418.000000	82.025678
3416.000000	82.128512
3414.000000	82.210745
3412.000000	82.282541
3410.000000	82.349316
3408.000000	82.412234
3406.000000	82.469310
3404.000000	82.517353
3402.000000	82.560087
3400.000000	82.614356
3398.000000	82.691517
3396.000000	82.774360
3394.000000	82.840652
3392.000000	82.905339
3390.000000	82.989142
3388.000000	83.070492
3386.000000	83.133796
3384.000000	83.193162
3382.000000	83.253084
3380.000000	83.309364
3378.000000	83.361624
3376.000000	83.411555
3374.000000	83.459076
3372.000000	83.495774
3370.000000	83.521689
3368.000000	83.557886
3366.000000	83.609618
3364.000000	83.664048
3362.000000	83.713846
3360.000000	83.760810
3358.000000	83.805695
3356.000000	83.849402
3354.000000	83.891985
3352.000000	83.929041
3350.000000	83.968921
3348.000000	84.018135
3346.000000	84.064535
3344.000000	84.105077
3342.000000	84.143737
3340.000000	84.177791
3338.000000	84.210422
3336.000000	84.253266
3334.000000	84.302241
3332.000000	84.347093
3330.000000	84.385310
3328.000000	84.418836
3326.000000	84.450902
3324.000000	84.489412
3322.000000	84.533194
3320.000000	84.573384
3318.000000	84.608412
3316.000000	84.641446
3314.000000	84.673460
3312.000000	84.703035
3310.000000	84.725877
3308.000000	84.746485
3306.000000	84.774035
3304.000000	84.820197
3302.000000	84.875650
3300.000000	84.919641
3298.000000	84.953893
3296.000000	84.985642
3294.000000	85.012970
3292.000000	85.042753
3290.000000	85.085987
3288.000000	85.135074
3286.000000	85.177721
3284.000000	85.216137
3282.000000	85.253710
3280.000000	85.290273
3278.000000	85.322712
3276.000000	85.352725
3274.000000	85.385871
3272.000000	85.423873
3270.000000	85.470363
3268.000000	85.523233
3266.000000	85.571843
3264.000000	85.616288
3262.000000	85.658638
3260.000000	85.700659
3258.000000	85.741396
3256.000000	85.782424
3254.000000	85.830701
3252.000000	85.885737
3250.000000	85.935728
3248.000000	85.976144
3246.000000	86.016285
3244.000000	86.068866
3242.000000	86.126474
3240.000000	86.180141
3238.000000	86.229362
3236.000000	86.272230
3234.000000	86.311043
3232.000000	86.361070
3230.000000	86.419404
3228.000000	86.474478
3226.000000	86.528061
3224.000000	86.579393
3222.000000	86.624308
3220.000000	86.668102
3218.000000	86.716696
3216.000000	86.766722
3214.000000	86.817046
3212.000000	86.869620
3210.000000	86.923073
3208.000000	86.982501
3206.000000	87.047190
3204.000000	87.115224
3202.000000	87.184312
3200.000000	87.252158
3198.000000	87.320769
3196.000000	87.397091
3194.000000	87.475681
3192.000000	87.549840
3190.000000	87.621783
3188.000000	87.692029
3186.000000	87.760447
3184.000000	87.833309
3182.000000	87.906431
3180.000000	87.973586
3178.000000	88.042013
3176.000000	88.118427
3174.000000	88.194967
3172.000000	88.269388
3170.000000	88.343799
3168.000000	88.419470
3166.000000	88.495280
3164.000000	88.572511
3162.000000	88.649526
3160.000000	88.727660
3158.000000	88.806738
3156.000000	88.883463
3154.000000	88.951768
3152.000000	89.022796
3150.000000	89.107863
3148.000000	89.194250
3146.000000	89.273257
3144.000000	89.348456
3142.000000	89.420113
3140.000000	89.490687
3138.000000	89.562786
3136.000000	89.633562
3134.000000	89.698780
3132.000000	89.766636
3130.000000	89.835798
3128.000000	89.901591
3126.000000	89.964583
3124.000000	90.022099
3122.000000	90.070035
3120.000000	90.115082
3118.000000	90.162452
3116.000000	90.219092
3114.000000	90.287368
3112.000000	90.351970
3110.000000	90.403548
3108.000000	90.456687
3106.000000	90.517810
3104.000000	90.577883
3102.000000	90.633609
3100.000000	90.695450
3098.000000	90.762532
3096.000000	90.829356
3094.000000	90.897719
3092.000000	90.963416
3090.000000	91.022708
3088.000000	91.080516
3086.000000	91.133032
3084.000000	91.178969
3082.000000	91.218382
3080.000000	91.253835
3078.000000	91.293983
3076.000000	91.339923
3074.000000	91.373920
3072.000000	91.393634
3070.000000	91.402555
3068.000000	91.404830
3066.000000	91.418666
3064.000000	91.456731
3062.000000	91.509289
3060.000000	91.565550
3058.000000	91.620935
3056.000000	91.681318
3054.000000	91.746935
3052.000000	91.805981
3050.000000	91.855941
3048.000000	91.905050
3046.000000	91.947843
3044.000000	91.978216
3042.000000	92.002243
3040.000000	92.029438
3038.000000	92.051093
3036.000000	92.058427
3034.000000	92.053974
3032.000000	92.041708
3030.000000	92.013081
3028.000000	91.950107
3026.000000	91.843306
3024.000000	91.714743
3022.000000	91.598461
3020.000000	91.534514
3018.000000	91.560790
3016.000000	91.698798
3014.000000	91.931332
3012.000000	92.215738
3010.000000	92.497855
3008.000000	92.731491
3006.000000	92.895909
3004.000000	93.008535
3002.000000	93.090547
3000.000000	93.149772
2998.000000	93.190277
2996.000000	93.221133
2994.000000	93.241287
2992.000000	93.251867
2990.000000	93.253245
2988.000000	93.239238
2986.000000	93.205426
2984.000000	93.148225
2982.000000	93.059480
2980.000000	92.938806
2978.000000	92.776309
2976.000000	92.550330
2974.000000	92.243430
2972.000000	91.847833
2970.000000	91.365887
2968.000000	90.841109
2966.000000	90.355215
2964.000000	89.997862
2962.000000	89.825090
2960.000000	89.839948
2958.000000	89.983691
2956.000000	90.177734
2954.000000	90.362444
2952.000000	90.506328
2950.000000	90.577159
2948.000000	90.540755
2946.000000	90.375303
2944.000000	90.080183
2942.000000	89.668867
2940.000000	89.177006
2938.000000	88.663151
2936.000000	88.189945
2934.000000	87.769198
2932.000000	87.369982
2930.000000	86.977897
2928.000000	86.649157
2926.000000	86.486310
2924.000000	86.594463
2922.000000	87.014861
2920.000000	87.692096
2918.000000	88.508603
2916.000000	89.359646
2914.000000	90.162258
2912.000000	90.856519
2910.000000	91.412115
2908.000000	91.845116
2906.000000	92.195081
2904.000000	92.498425
2902.000000	92.772817
2900.000000	93.028494
2898.000000	93.267978
2896.000000	93.495317
2894.000000	93.711500
2892.000000	93.916113
2890.000000	94.102218
2888.000000	94.264783
2886.000000	94.393972
2884.000000	94.482548
2882.000000	94.525027
2880.000000	94.522298
2878.000000	94.468948
2876.000000	94.357173
2874.000000	94.176592
2872.000000	93.921465
2870.000000	93.562537
2868.000000	93.076307
2866.000000	92.500314
2864.000000	91.957173
2862.000000	91.602003
2860.000000	91.527857
2858.000000	91.697600
2856.000000	92.000683
2854.000000	92.357125
2852.000000	92.769959
2850.000000	93.276553
2848.000000	93.881352
2846.000000	94.503121
2844.000000	95.046737
2842.000000	95.479845
2840.000000	95.818911
2838.000000	96.088272
2836.000000	96.310590
2834.000000	96.493583
2832.000000	96.648922
2830.000000	96.784305
2828.000000	96.907617
2826.000000	97.019052
2824.000000	97.120703
2822.000000	97.213321
2820.000000	97.299542
2818.000000	97.376975
2816.000000	97.448528
2814.000000	97.513083
2812.000000	97.571124
2810.000000	97.622933
2808.000000	97.674685
2806.000000	97.723344
2804.000000	97.768741
2802.000000	97.811584
2800.000000	97.854900
2798.000000	97.895854
2796.000000	97.937069
2794.000000	97.979126
2792.000000	98.026378
2790.000000	98.081049
2788.000000	98.150368
2786.000000	98.232090
2784.000000	98.317962
2782.000000	98.398212
2780.000000	98.472649
2778.000000	98.539743
2776.000000	98.601525
2774.000000	98.658251
2772.000000	98.713905
2770.000000	98.765973
2768.000000	98.816785
2766.000000	98.865338
2764.000000	98.913270
2762.000000	98.959182
2760.000000	99.004843
2758.000000	99.047898
2756.000000	99.091066
2754.000000	99.131710
2752.000000	99.172154
2750.000000	99.209830
2748.000000	99.245844
2746.000000	99.281750
2744.000000	99.317282
2742.000000	99.350942
2740.000000	99.386860
2738.000000	99.420194
2736.000000	99.452894
2734.000000	99.485938
2732.000000	99.520892
2730.000000	99.554294
2728.000000	99.587349
2726.000000	99.618965
2724.000000	99.650903
2722.000000	99.681598
2720.000000	99.713499
2718.000000	99.743650
2716.000000	99.773773
2714.000000	99.800174
2712.000000	99.825193
2710.000000	99.849081
2708.000000	99.873467
2706.000000	99.897973
2704.000000	99.928008
2702.000000	99.963263
2700.000000	100.005722
2698.000000	100.052340
2696.000000	100.100286
2694.000000	100.145416
2692.000000	100.188760
2690.000000	100.228398
2688.000000	100.268521
2686.000000	100.308297
2684.000000	100.348412
2682.000000	100.385104
2680.000000	100.420240
2678.000000	100.453980
2676.000000	100.487127
2674.000000	100.517939
2672.000000	100.547986
2670.000000	100.576632
2668.000000	100.606369
2666.000000	100.633405
2664.000000	100.661335
2662.000000	100.689345
2660.000000	100.719668
2658.000000	100.750372
2656.000000	100.784271
2654.000000	100.819349
2652.000000	100.857556
2650.000000	100.896211
2648.000000	100.936928
2646.000000	100.975989
2644.000000	101.013957
2642.000000	101.048335
2640.000000	101.083229
2638.000000	101.117491
2636.000000	101.151592
2634.000000	101.182523
2632.000000	101.214299
2630.000000	101.243604
2628.000000	101.271632
2626.000000	101.298142
2624.000000	101.325597
2622.000000	101.352014
2620.000000	101.379642
2618.000000	101.405608
2616.000000	101.432348
2614.000000	101.457250
2612.000000	101.482283
2610.000000	101.502888
2608.000000	101.522405
2606.000000	101.538957
2604.000000	101.554063
2602.000000	101.565845
2600.000000	101.575885
2598.000000	101.583742
2596.000000	101.595112
2594.000000	101.609500
2592.000000	101.632324
2590.000000	101.663558
2588.000000	101.706224
2586.000000	101.755996
2584.000000	101.814274
2582.000000	101.875963
2580.000000	101.938609
2578.000000	101.995438
2576.000000	102.048590
2574.000000	102.096131
2572.000000	102.140383
2570.000000	102.179868
2568.000000	102.216923
2566.000000	102.249140
2564.000000	102.280678
2562.000000	102.310624
2560.000000	102.340795
2558.000000	102.366990
2556.000000	102.394244
2554.000000	102.420693
2552.000000	102.447685
2550.000000	102.472289
2548.000000	102.498139
2546.000000	102.522576
2544.000000	102.548681
2542.000000	102.574139
2540.000000	102.601013
2538.000000	102.626812
2536.000000	102.654375
2534.000000	102.679631
2532.000000	102.704421
2530.000000	102.729453
2528.000000	102.756021
2526.000000	102.779315
2524.000000	102.804682
2522.000000	102.828378
2520.000000	102.851849
2518.000000	102.874331
2516.000000	102.898988
2514.000000	102.920990
2512.000000	102.943389
2510.000000	102.963804
2508.000000	102.984913
2506.000000	103.003866
2504.000000	103.024265
2502.000000	103.044800
2500.000000	103.068503
2498.000000	103.092352
2496.000000	103.117593
2494.000000	103.142048
2492.000000	103.169397
2490.000000	103.195376
2488.000000	103.222526
2486.000000	103.247349
2484.000000	103.272993
2482.000000	103.297337
2480.000000	103.321994
2478.000000	103.344698
2476.000000	103.368979
2474.000000	103.388501
2472.000000	103.408315
2470.000000	103.426887
2468.000000	103.445205
2466.000000	103.461018
2464.000000	103.478263
2462.000000	103.494000
2460.000000	103.510584
2458.000000	103.524993
2456.000000	103.541639
2454.000000	103.557248
2452.000000	103.574763
2450.000000	103.591249
2448.000000	103.608339
2446.000000	103.622054
2444.000000	103.637328
2442.000000	103.651852
2440.000000	103.668153
2438.000000	103.680730
2436.000000	103.694232
2434.000000	103.708161
2432.000000	103.723477
2430.000000	103.734185
2428.000000	103.743472
2426.000000	103.753649
2424.000000	103.770845
2422.000000	103.787514
2420.000000	103.802670
2418.000000	103.814493
2416.000000	103.827090
2414.000000	103.836838
2412.000000	103.848318
2410.000000	103.859624
2408.000000	103.872830
2406.000000	103.884735
2404.000000	103.899264
2402.000000	103.913847
2400.000000	103.931373
2398.000000	103.947683
2396.000000	103.965079
2394.000000	103.980507
2392.000000	103.998168
2390.000000	104.012700
2388.000000	104.024977
2386.000000	104.027839
2384.000000	104.016237
2382.000000	103.974593
2380.000000	103.896293
2378.000000	103.769678
2376.000000	103.592541
2374.000000	103.363861
2372.000000	103.099094
2370.000000	102.815905
2368.000000	102.547138
2366.000000	102.322005
2364.000000	102.174108
2362.000000	102.122640
2360.000000	102.182879
2358.000000	102.353094
2356.000000	102.629806
2354.000000	102.989069
2352.000000	103.390206
2350.000000	103.682723
2348.000000	103.667969
2346.000000	103.405594
2344.000000	103.127474
2342.000000	102.925270
2340.000000	102.809154
2338.000000	102.756748
2336.000000	102.754336
2334.000000	102.789777
2332.000000	102.860238
2330.000000	102.957781
2328.000000	103.078062
2326.000000	103.208397
2324.000000	103.347358
2322.000000	103.483825
2320.000000	103.613779
2318.000000	103.730327
2316.000000	103.837842
2314.000000	103.930392
2312.000000	104.012265
2310.000000	104.080757
2308.000000	104.139543
2306.000000	104.185026
2304.000000	104.224210
2302.000000	104.255749
2300.000000	104.283690
2298.000000	104.304994
2296.000000	104.324882
2294.000000	104.339944
2292.000000	104.356068
2290.000000	104.368695
2288.000000	104.381070
2286.000000	104.389326
2284.000000	104.397049
2282.000000	104.397548
2280.000000	104.396972
2278.000000	104.392330
2276.000000	104.387939
2274.000000	104.380460
2272.000000	104.374827
2270.000000	104.367367
2268.000000	104.362741
2266.000000	104.356894
2264.000000	104.355058
2262.000000	104.351578
2260.000000	104.350010
2258.000000	104.347175
2256.000000	104.349383
2254.000000	104.350433
2252.000000	104.354919
2250.000000	104.359121
2248.000000	104.367641
2246.000000	104.376285
2244.000000	104.389159
2242.000000	104.400185
2240.000000	104.414244
2238.000000	104.426672
2236.000000	104.441490
2234.000000	104.454089
2232.000000	104.467642
2230.000000	104.478236
2228.000000	104.491835
2226.000000	104.503359
2224.000000	104.515929
2222.000000	104.523761
2220.000000	104.532115
2218.000000	104.537400
2216.000000	104.545273
2214.000000	104.550183
2212.000000	104.556811
2210.000000	104.560717
2208.000000	104.565523
2206.000000	104.568685
2204.000000	104.575815
2202.000000	104.579607
2200.000000	104.585032
2198.000000	104.586821
2196.000000	104.589932
2194.000000	104.591036
2192.000000	104.594081
2190.000000	104.593405
2188.000000	104.594541
2186.000000	104.593205
2184.000000	104.593569
2182.000000	104.590701
2180.000000	104.590451
2178.000000	104.587602
2176.000000	104.587087
2174.000000	104.577732
2172.000000	104.553802
2170.000000	104.527028
2168.000000	104.538711
2166.000000	104.561017
2164.000000	104.571654
2162.000000	104.570747
2160.000000	104.570401
2158.000000	104.568070
2156.000000	104.569698
2154.000000	104.567541
2152.000000	104.566232
2150.000000	104.561687
2148.000000	104.560886
2146.000000	104.559544
2144.000000	104.561103
2142.000000	104.558143
2140.000000	104.557381
2138.000000	104.551898
2136.000000	104.549440
2134.000000	104.549368
2132.000000	104.551831
2130.000000	104.548967
2128.000000	104.548422
2126.000000	104.546820
2124.000000	104.547178
2122.000000	104.545984
2120.000000	104.550302
2118.000000	104.552319
2116.000000	104.554995
2114.000000	104.561003
2112.000000	104.573417
2110.000000	104.584471
2108.000000	104.598219
2106.000000	104.608664
2104.000000	104.622041
2102.000000	104.632119
2100.000000	104.644936
2098.000000	104.654992
2096.000000	104.668989
2094.000000	104.679774
2092.000000	104.691462
2090.000000	104.699938
2088.000000	104.719994
2086.000000	104.736928
2084.000000	104.756638
2082.000000	104.770503
2080.000000	104.787309
2078.000000	104.800162
2076.000000	104.818875
2074.000000	104.834055
2072.000000	104.853783
2070.000000	104.870839
2068.000000	104.884798
2066.000000	104.886275
2064.000000	104.909278
2062.000000	104.943216
2060.000000	104.972898
2058.000000	104.995033
2056.000000	105.017194
2054.000000	105.035551
2052.000000	105.058974
2050.000000	105.077405
2048.000000	105.098883
2046.000000	105.114267
2044.000000	105.126730
2042.000000	105.133029
2040.000000	105.157854
2038.000000	105.181905
2036.000000	105.198530
2034.000000	105.205813
2032.000000	105.205937
2030.000000	105.187974
2028.000000	105.198958
2026.000000	105.232650
2024.000000	105.254674
2022.000000	105.260749
2020.000000	105.254472
2018.000000	105.236700
2016.000000	105.265022
2014.000000	105.314941
2012.000000	105.344500
2010.000000	105.357461
2008.000000	105.373272
2006.000000	105.386907
2004.000000	105.400957
2002.000000	105.405360
2000.000000	105.409313
1998.000000	105.412470
1996.000000	105.410931
1994.000000	105.352783
1992.000000	105.303988
1990.000000	105.343969
1988.000000	105.387624
1986.000000	105.403384
1984.000000	105.406988
1982.000000	105.395884
1980.000000	105.385057
1978.000000	105.370182
1976.000000	105.357128
1974.000000	105.340427
1972.000000	105.322147
1970.000000	105.274150
1968.000000	105.201927
1966.000000	105.187153
1964.000000	105.209089
1962.000000	105.158749
1960.000000	105.038360
1958.000000	105.004713
1956.000000	105.084273
1954.000000	105.113031
1952.000000	105.098566
1950.000000	105.063549
1948.000000	105.032984
1946.000000	104.972241
1944.000000	104.852306
1942.000000	104.804825
1940.000000	104.904541
1938.000000	104.941205
1936.000000	104.923794
1934.000000	104.891748
1932.000000	104.869558
1930.000000	104.842402
1928.000000	104.816443
1926.000000	104.746447
1924.000000	104.625984
1922.000000	104.561343
1920.000000	104.441201
1918.000000	104.283510
1916.000000	104.422191
1914.000000	104.522477
1912.000000	104.458546
1910.000000	104.353158
1908.000000	104.321062
1906.000000	104.304881
1904.000000	104.271061
1902.000000	104.217979
1900.000000	104.174918
1898.000000	104.102100
1896.000000	104.019819
1894.000000	103.983889
1892.000000	103.921878
1890.000000	103.783349
1888.000000	103.840467
1886.000000	103.926736
1884.000000	103.931648
1882.000000	103.915413
1880.000000	103.900439
1878.000000	103.870520
1876.000000	103.852792
1874.000000	103.809697
1872.000000	103.625593
1870.000000	103.249793
1868.000000	103.215765
1866.000000	103.492747
1864.000000	103.639333
1862.000000	103.626593
1860.000000	103.593604
1858.000000	103.560740
1856.000000	103.544108
1854.000000	103.507111
1852.000000	103.469491
1850.000000	103.378023
1848.000000	103.190566
1846.000000	102.662003
1844.000000	102.343418
1842.000000	102.811252
1840.000000	103.131204
1838.000000	103.079931
1836.000000	103.031231
1834.000000	102.955226
1832.000000	102.634784
1830.000000	102.310811
1828.000000	102.395202
1826.000000	102.364243
1824.000000	102.397526
1822.000000	102.560288
1820.000000	102.555814
1818.000000	102.460735
1816.000000	102.402449
1814.000000	102.301535
1812.000000	102.103007
1810.000000	101.986898
1808.000000	102.001697
1806.000000	101.947888
1804.000000	101.749774
1802.000000	101.428006
1800.000000	101.283249
1798.000000	101.325435
1796.000000	101.188693
1794.000000	100.552233
1792.000000	100.212215
1790.000000	100.640797
1788.000000	100.883976
1786.000000	100.651188
1784.000000	100.501636
1782.000000	100.416449
1780.000000	100.318543
1778.000000	100.284716
1776.000000	99.956406
1774.000000	99.040344
1772.000000	98.592726
1770.000000	99.047249
1768.000000	99.316733
1766.000000	99.587877
1764.000000	99.423482
1762.000000	99.005528
1760.000000	99.074921
1758.000000	99.012358
1756.000000	98.883579
1754.000000	98.662042
1752.000000	97.869794
1750.000000	97.628116
1748.000000	97.913008
1746.000000	98.031550
1744.000000	97.896243
1742.000000	97.519793
1740.000000	97.150056
1738.000000	97.136848
1736.000000	96.135966
1734.000000	95.108270
1732.000000	96.112549
1730.000000	97.070793
1728.000000	97.323387
1726.000000	97.333022
1724.000000	97.226892
1722.000000	97.034702
1720.000000	96.063792
1718.000000	94.713096
1716.000000	94.988369
1714.000000	96.016692
1712.000000	96.541588
1710.000000	96.503959
1708.000000	96.139299
1706.000000	95.683085
1704.000000	95.444072
1702.000000	94.179738
1700.000000	93.241050
1698.000000	93.608211
1696.000000	93.524194
1694.000000	94.725519
1692.000000	95.783359
1690.000000	95.720102
1688.000000	95.195942
1686.000000	93.476574
1684.000000	92.824866
1682.000000	94.386598
1680.000000	95.295912
1678.000000	95.110580
1676.000000	94.377973
1674.000000	94.390231
1672.000000	94.475182
1670.000000	94.025953
1668.000000	94.326317
1666.000000	94.762576
1664.000000	94.403752
1662.000000	94.231977
1660.000000	94.541346
1658.000000	94.449668
1656.000000	93.021947
1654.000000	90.356479
1652.000000	90.575553
1650.000000	92.706351
1648.000000	92.581206
1646.000000	92.214537
1644.000000	93.042765
1642.000000	93.534759
1640.000000	93.283757
1638.000000	92.308254
1636.000000	91.168219
1634.000000	91.710931
1632.000000	92.592551
1630.000000	92.438405
1628.000000	91.997588
1626.000000	91.566599
1624.000000	90.911356
1622.000000	90.630294
1620.000000	90.277488
1618.000000	88.940553
1616.000000	88.390020
1614.000000	88.933838
1612.000000	88.677105
1610.000000	88.035593
1608.000000	87.710293
1606.000000	87.763501
1604.000000	87.961639
1602.000000	88.209002
1600.000000	88.458151
1598.000000	88.665994
1596.000000	88.797505
1594.000000	88.912790
1592.000000	88.993490
1590.000000	89.005037
1588.000000	88.972996
1586.000000	88.908214
1584.000000	88.831164
1582.000000	88.774197
1580.000000	88.573404
1578.000000	87.521230
1576.000000	86.783051
1574.000000	87.760157
1572.000000	88.078220
1570.000000	87.538292
1568.000000	87.648007
1566.000000	87.785696
1564.000000	87.457240
1562.000000	86.049306
1560.000000	83.707291
1558.000000	83.752486
1556.000000	85.440650
1554.000000	86.356206
1552.000000	87.044106
1550.000000	87.415308
1548.000000	87.601848
1546.000000	87.365183
1544.000000	86.793644
1542.000000	85.814271
1540.000000	85.264911
1538.000000	86.761781
1536.000000	88.242816
1534.000000	88.241798
1532.000000	88.614014
1530.000000	88.998453
1528.000000	88.753127
1526.000000	88.378703
1524.000000	87.915119
1522.000000	87.051940
1520.000000	87.234356
1518.000000	87.745971
1516.000000	87.801984
1514.000000	87.861928
1512.000000	87.650027
1510.000000	86.979811
1508.000000	85.266005
1506.000000	84.475162
1504.000000	85.342760
1502.000000	84.890957
1500.000000	82.341370
1498.000000	78.847318
1496.000000	76.326872
1494.000000	76.166756
1492.000000	77.248629
1490.000000	78.866385
1488.000000	80.871810
1486.000000	82.612410
1484.000000	83.758541
1482.000000	84.270790
1480.000000	84.504599
1478.000000	84.353300
1476.000000	83.836712
1474.000000	83.075097
1472.000000	82.902079
1470.000000	83.472145
1468.000000	83.447575
1466.000000	82.717958
1464.000000	82.325645
1462.000000	82.177525
1460.000000	81.026999
1458.000000	78.903137
1456.000000	77.928185
1454.000000	78.105048
1452.000000	77.824248
1450.000000	77.871075
1448.000000	78.646626
1446.000000	79.691233
1444.000000	80.243028
1442.000000	80.370124
1440.000000	80.190356
1438.000000	79.529732
1436.000000	79.437900
1434.000000	80.168152
1432.000000	80.330681
1430.000000	80.236027
1428.000000	80.307642
1426.000000	80.331691
1424.000000	80.183700
1422.000000	79.849968
1420.000000	79.078503
1418.000000	79.081634
1416.000000	79.526115
1414.000000	79.511224
1412.000000	79.161680
1410.000000	78.640196
1408.000000	77.874719
1406.000000	77.002587
1404.000000	76.531459
1402.000000	76.567915
1400.000000	76.702111
1398.000000	77.091717
1396.000000	77.426002
1394.000000	77.764900
1392.000000	78.237656
1390.000000	78.245174
1388.000000	77.815859
1386.000000	77.589995
1384.000000	77.607853
1382.000000	77.732462
1380.000000	77.820179
1378.000000	77.749147
1376.000000	77.538545
1374.000000	77.368389
1372.000000	77.393337
1370.000000	77.333876
1368.000000	77.179730
1366.000000	77.013034
1364.000000	76.711278
1362.000000	76.499850
1360.000000	76.473897
1358.000000	76.392627
1356.000000	76.202328
1354.000000	75.998251
1352.000000	75.797433
1350.000000	75.582048
1348.000000	75.364754
1346.000000	75.140350
1344.000000	74.888220
1342.000000	74.578330
1340.000000	74.274103
1338.000000	74.146835
1336.000000	74.118439
1334.000000	74.051922
1332.000000	73.907068
1330.000000	73.715753
1328.000000	73.493872
1326.000000	73.253500
1324.000000	72.989019
1322.000000	72.698373
1320.000000	72.376128
1318.000000	72.073057
1316.000000	71.784978
1314.000000	71.476243
1312.000000	71.168463
1310.000000	70.866273
1308.000000	70.541460
1306.000000	70.212577
1304.000000	69.873716
1302.000000	69.530699
1300.000000	69.185237
1298.000000	68.838495
1296.000000	68.482043
1294.000000	68.118937
1292.000000	67.735317
1290.000000	67.337957
1288.000000	66.933431
1286.000000	66.536305
1284.000000	66.125447
1282.000000	65.694288
1280.000000	65.237086
1278.000000	64.750631
1276.000000	64.212641
1274.000000	63.596678
1272.000000	62.864279
1270.000000	61.979111
1268.000000	60.875395
1266.000000	59.556806
1264.000000	58.184937
1262.000000	57.082314
1260.000000	56.528650
1258.000000	56.536643
1256.000000	56.828282
1254.000000	57.074384
1252.000000	57.072543
1250.000000	56.829429
1248.000000	56.433620
1246.000000	55.962098
1244.000000	55.452909
1242.000000	54.938918
1240.000000	54.429134
1238.000000	53.937422
1236.000000	53.460307
1234.000000	52.996709
1232.000000	52.541665
1230.000000	52.094432
1228.000000	51.645428
1226.000000	51.193952
1224.000000	50.734243
1222.000000	50.263084
1220.000000	49.770364
1218.000000	49.260324
1216.000000	48.738755
1214.000000	48.224026
1212.000000	47.731223
1210.000000	47.278280
1208.000000	46.858916
1206.000000	46.460958
1204.000000	46.064170
1202.000000	45.664533
1200.000000	45.266810
1198.000000	44.880130
1196.000000	44.489736
1194.000000	44.084222
1192.000000	43.664263
1190.000000	43.234756
1188.000000	42.790364
1186.000000	42.318841
1184.000000	41.735272
1182.000000	41.008245
1180.000000	40.442229
1178.000000	40.194369
1176.000000	39.960643
1174.000000	39.602478
1172.000000	39.177634
1170.000000	38.732530
1168.000000	38.266367
1166.000000	37.788969
1164.000000	37.316788
1162.000000	36.857239
1160.000000	36.402657
1158.000000	35.967970
1156.000000	35.546565
1154.000000	35.128135
1152.000000	34.701229
1150.000000	34.278286
1148.000000	33.847895
1146.000000	33.410259
1144.000000	32.980243
1142.000000	32.601376
1140.000000	32.289765
1138.000000	31.977842
1136.000000	31.618833
1134.000000	31.226991
1132.000000	30.810335
1130.000000	30.383405
1128.000000	29.961009
1126.000000	29.542347
1124.000000	29.113670
1122.000000	28.675466
1120.000000	28.225405
1118.000000	27.768843
1116.000000	27.305256
1114.000000	26.838709
1112.000000	26.370387
1110.000000	25.905875
1108.000000	25.449672
1106.000000	25.014435
1104.000000	24.597280
1102.000000	24.187552
1100.000000	23.774606
1098.000000	23.366197
1096.000000	22.967399
1094.000000	22.584676
1092.000000	22.218588
1090.000000	21.868447
1088.000000	21.526699
1086.000000	21.189034
1084.000000	20.841386
1082.000000	20.483859
1080.000000	20.146208
1078.000000	19.843234
1076.000000	19.566255
1074.000000	19.332279
1072.000000	19.116973
1070.000000	18.895110
1068.000000	18.664804
1066.000000	18.434963
1064.000000	18.203392
1062.000000	17.966457
1060.000000	17.719022
1058.000000	17.433912
1056.000000	17.045920
1054.000000	16.533945
1052.000000	16.024763
1050.000000	15.725764
1048.000000	15.692364
1046.000000	15.773936
1044.000000	15.776982
1042.000000	15.661435
1040.000000	15.476406
1038.000000	15.263115
1036.000000	15.035913
1034.000000	14.799424
1032.000000	14.549966
1030.000000	14.292477
1028.000000	14.028428
1026.000000	13.759795
1024.000000	13.487588
1022.000000	13.218824
1020.000000	12.962606
1018.000000	12.729212
1016.000000	12.517507
1014.000000	12.330165
1012.000000	12.160841
1010.000000	11.999476
1008.000000	11.833051
1006.000000	11.654497
1004.000000	11.458608
1002.000000	11.248333
1000.000000	11.019935
