PE IR       SUBTECH     SPECTRUM    ASCII       PEDS        4.00        
   -1
TE110A_047_115K_BG.ASC
20/05/14
13:22:39.00
20/05/14
13:22:39.00
Administrator
TE110A.Thursday, May 14 2020, 016.
1000.000000
#HDR
-1
-1
#GR
cm-1
EGY
1.0
0.0
6000.000000
-2.000000
2501
8
105.388433
11.023238
#DATA
6000.000000	16.582677
5998.000000	16.615938
5996.000000	16.649805
5994.000000	16.682465
5992.000000	16.714721
5990.000000	16.747980
5988.000000	16.781407
5986.000000	16.814387
5984.000000	16.846749
5982.000000	16.879694
5980.000000	16.913193
5978.000000	16.947183
5976.000000	16.980029
5974.000000	17.012565
5972.000000	17.045017
5970.000000	17.078153
5968.000000	17.111985
5966.000000	17.145642
5964.000000	17.180181
5962.000000	17.215994
5960.000000	17.251166
5958.000000	17.285830
5956.000000	17.319205
5954.000000	17.353245
5952.000000	17.387527
5950.000000	17.421535
5948.000000	17.454740
5946.000000	17.488363
5944.000000	17.521881
5942.000000	17.555831
5940.000000	17.589683
5938.000000	17.623776
5936.000000	17.658846
5934.000000	17.693460
5932.000000	17.726658
5930.000000	17.760121
5928.000000	17.794013
5926.000000	17.829077
5924.000000	17.863959
5922.000000	17.898702
5920.000000	17.933265
5918.000000	17.968438
5916.000000	18.003929
5914.000000	18.041083
5912.000000	18.078020
5910.000000	18.114848
5908.000000	18.151990
5906.000000	18.188572
5904.000000	18.225278
5902.000000	18.261250
5900.000000	18.296967
5898.000000	18.333084
5896.000000	18.369058
5894.000000	18.405593
5892.000000	18.441017
5890.000000	18.476228
5888.000000	18.512227
5886.000000	18.549456
5884.000000	18.586724
5882.000000	18.622678
5880.000000	18.657613
5878.000000	18.693031
5876.000000	18.729767
5874.000000	18.766992
5872.000000	18.803875
5870.000000	18.840258
5868.000000	18.877335
5866.000000	18.915151
5864.000000	18.952119
5862.000000	18.988446
5860.000000	19.025169
5858.000000	19.062870
5856.000000	19.100776
5854.000000	19.138493
5852.000000	19.175886
5850.000000	19.214676
5848.000000	19.254365
5846.000000	19.293865
5844.000000	19.332736
5842.000000	19.371964
5840.000000	19.412965
5838.000000	19.455900
5836.000000	19.498420
5834.000000	19.540294
5832.000000	19.581154
5830.000000	19.621813
5828.000000	19.662949
5826.000000	19.704582
5824.000000	19.746376
5822.000000	19.787864
5820.000000	19.828915
5818.000000	19.869377
5816.000000	19.909081
5814.000000	19.948763
5812.000000	19.988215
5810.000000	20.028759
5808.000000	20.069671
5806.000000	20.110626
5804.000000	20.151390
5802.000000	20.192533
5800.000000	20.233579
5798.000000	20.273755
5796.000000	20.313147
5794.000000	20.353802
5792.000000	20.395511
5790.000000	20.437138
5788.000000	20.477662
5786.000000	20.518447
5784.000000	20.560562
5782.000000	20.603149
5780.000000	20.644709
5778.000000	20.685166
5776.000000	20.725946
5774.000000	20.767946
5772.000000	20.810529
5770.000000	20.851920
5768.000000	20.892580
5766.000000	20.933942
5764.000000	20.975688
5762.000000	21.018405
5760.000000	21.061069
5758.000000	21.103552
5756.000000	21.145210
5754.000000	21.186175
5752.000000	21.227661
5750.000000	21.269837
5748.000000	21.311920
5746.000000	21.354075
5744.000000	21.395344
5742.000000	21.436167
5740.000000	21.475944
5738.000000	21.515397
5736.000000	21.554919
5734.000000	21.594359
5732.000000	21.634497
5730.000000	21.675332
5728.000000	21.716479
5726.000000	21.757606
5724.000000	21.798741
5722.000000	21.840534
5720.000000	21.882198
5718.000000	21.924305
5716.000000	21.967833
5714.000000	22.012255
5712.000000	22.055883
5710.000000	22.099156
5708.000000	22.142690
5706.000000	22.186856
5704.000000	22.230180
5702.000000	22.273027
5700.000000	22.317212
5698.000000	22.363090
5696.000000	22.408615
5694.000000	22.453177
5692.000000	22.496314
5690.000000	22.540789
5688.000000	22.586566
5686.000000	22.632117
5684.000000	22.677551
5682.000000	22.722639
5680.000000	22.768145
5678.000000	22.813238
5676.000000	22.858714
5674.000000	22.905098
5672.000000	22.951109
5670.000000	22.995943
5668.000000	23.040788
5666.000000	23.085637
5664.000000	23.131025
5662.000000	23.176831
5660.000000	23.222347
5658.000000	23.267366
5656.000000	23.312138
5654.000000	23.357512
5652.000000	23.402842
5650.000000	23.447796
5648.000000	23.493440
5646.000000	23.540299
5644.000000	23.585866
5642.000000	23.630459
5640.000000	23.674475
5638.000000	23.719344
5636.000000	23.764081
5634.000000	23.810055
5632.000000	23.856337
5630.000000	23.902606
5628.000000	23.947662
5626.000000	23.992166
5624.000000	24.037396
5622.000000	24.083696
5620.000000	24.129719
5618.000000	24.173776
5616.000000	24.217484
5614.000000	24.262034
5612.000000	24.307775
5610.000000	24.352993
5608.000000	24.397906
5606.000000	24.443925
5604.000000	24.489832
5602.000000	24.535833
5600.000000	24.581254
5598.000000	24.627019
5596.000000	24.673440
5594.000000	24.719496
5592.000000	24.765641
5590.000000	24.812468
5588.000000	24.859552
5586.000000	24.907178
5584.000000	24.952582
5582.000000	24.998022
5580.000000	25.044058
5578.000000	25.091235
5576.000000	25.138601
5574.000000	25.185995
5572.000000	25.234027
5570.000000	25.282870
5568.000000	25.331415
5566.000000	25.379743
5564.000000	25.428228
5562.000000	25.476182
5560.000000	25.522886
5558.000000	25.568527
5556.000000	25.614342
5554.000000	25.660901
5552.000000	25.707851
5550.000000	25.755341
5548.000000	25.803456
5546.000000	25.851411
5544.000000	25.899373
5542.000000	25.946943
5540.000000	25.992915
5538.000000	26.037760
5536.000000	26.084124
5534.000000	26.134094
5532.000000	26.184665
5530.000000	26.233198
5528.000000	26.280466
5526.000000	26.326377
5524.000000	26.370133
5522.000000	26.413473
5520.000000	26.458619
5518.000000	26.507624
5516.000000	26.557686
5514.000000	26.606030
5512.000000	26.651475
5510.000000	26.695361
5508.000000	26.741751
5506.000000	26.791106
5504.000000	26.841972
5502.000000	26.891556
5500.000000	26.939420
5498.000000	26.984089
5496.000000	27.024549
5494.000000	27.065295
5492.000000	27.109448
5490.000000	27.160632
5488.000000	27.216119
5486.000000	27.273218
5484.000000	27.328993
5482.000000	27.380549
5480.000000	27.422302
5478.000000	27.456058
5476.000000	27.496084
5474.000000	27.550038
5472.000000	27.609169
5470.000000	27.661688
5468.000000	27.709332
5466.000000	27.755633
5464.000000	27.798648
5462.000000	27.843172
5460.000000	27.894935
5458.000000	27.952637
5456.000000	28.009973
5454.000000	28.059799
5452.000000	28.101734
5450.000000	28.137871
5448.000000	28.174961
5446.000000	28.217802
5444.000000	28.263870
5442.000000	28.318602
5440.000000	28.374722
5438.000000	28.424165
5436.000000	28.469089
5434.000000	28.514484
5432.000000	28.558830
5430.000000	28.603553
5428.000000	28.658354
5426.000000	28.726639
5424.000000	28.792262
5422.000000	28.848384
5420.000000	28.897063
5418.000000	28.930860
5416.000000	28.952507
5414.000000	28.979532
5412.000000	29.027623
5410.000000	29.095420
5408.000000	29.165092
5406.000000	29.228582
5404.000000	29.284018
5402.000000	29.334541
5400.000000	29.378650
5398.000000	29.413675
5396.000000	29.446402
5394.000000	29.494168
5392.000000	29.557595
5390.000000	29.618674
5388.000000	29.664896
5386.000000	29.709834
5384.000000	29.765995
5382.000000	29.823117
5380.000000	29.863027
5378.000000	29.897523
5376.000000	29.946005
5374.000000	30.013571
5372.000000	30.082058
5370.000000	30.141580
5368.000000	30.191481
5366.000000	30.237545
5364.000000	30.285417
5362.000000	30.339312
5360.000000	30.393478
5358.000000	30.434424
5356.000000	30.462643
5354.000000	30.498995
5352.000000	30.553170
5350.000000	30.611798
5348.000000	30.650585
5346.000000	30.684416
5344.000000	30.732209
5342.000000	30.784887
5340.000000	30.832153
5338.000000	30.883785
5336.000000	30.951033
5334.000000	31.019889
5332.000000	31.074863
5330.000000	31.119004
5328.000000	31.166402
5326.000000	31.224800
5324.000000	31.290661
5322.000000	31.350632
5320.000000	31.401523
5318.000000	31.449168
5316.000000	31.497983
5314.000000	31.549522
5312.000000	31.597722
5310.000000	31.639795
5308.000000	31.683701
5306.000000	31.737276
5304.000000	31.796269
5302.000000	31.851234
5300.000000	31.903200
5298.000000	31.956433
5296.000000	32.008418
5294.000000	32.051633
5292.000000	32.090731
5290.000000	32.137636
5288.000000	32.194151
5286.000000	32.252666
5284.000000	32.306599
5282.000000	32.360454
5280.000000	32.416350
5278.000000	32.474006
5276.000000	32.530374
5274.000000	32.581892
5272.000000	32.628362
5270.000000	32.672460
5268.000000	32.710313
5266.000000	32.744133
5264.000000	32.787271
5262.000000	32.850641
5260.000000	32.921197
5258.000000	32.975536
5256.000000	33.019814
5254.000000	33.070010
5252.000000	33.120944
5250.000000	33.162570
5248.000000	33.201808
5246.000000	33.255941
5244.000000	33.323795
5242.000000	33.393506
5240.000000	33.457511
5238.000000	33.512143
5236.000000	33.560332
5234.000000	33.605454
5232.000000	33.652980
5230.000000	33.699526
5228.000000	33.740652
5226.000000	33.785062
5224.000000	33.842993
5222.000000	33.908244
5220.000000	33.967168
5218.000000	34.021695
5216.000000	34.078482
5214.000000	34.134159
5212.000000	34.176966
5210.000000	34.205349
5208.000000	34.236989
5206.000000	34.293465
5204.000000	34.369005
5202.000000	34.441139
5200.000000	34.495946
5198.000000	34.544668
5196.000000	34.598165
5194.000000	34.656976
5192.000000	34.713142
5190.000000	34.764745
5188.000000	34.812670
5186.000000	34.862932
5184.000000	34.918568
5182.000000	34.978593
5180.000000	35.036532
5178.000000	35.091532
5176.000000	35.146374
5174.000000	35.199873
5172.000000	35.252444
5170.000000	35.306957
5168.000000	35.362822
5166.000000	35.416068
5164.000000	35.467514
5162.000000	35.521616
5160.000000	35.577130
5158.000000	35.631486
5156.000000	35.686600
5154.000000	35.743152
5152.000000	35.799610
5150.000000	35.855017
5148.000000	35.910123
5146.000000	35.963970
5144.000000	36.015541
5142.000000	36.067969
5140.000000	36.121620
5138.000000	36.177100
5136.000000	36.232000
5134.000000	36.287542
5132.000000	36.342666
5130.000000	36.397137
5128.000000	36.450391
5126.000000	36.504214
5124.000000	36.557775
5122.000000	36.611109
5120.000000	36.663961
5118.000000	36.718576
5116.000000	36.773702
5114.000000	36.828097
5112.000000	36.882064
5110.000000	36.937517
5108.000000	36.992959
5106.000000	37.047831
5104.000000	37.103121
5102.000000	37.159664
5100.000000	37.215097
5098.000000	37.269558
5096.000000	37.324739
5094.000000	37.381984
5092.000000	37.439339
5090.000000	37.495423
5088.000000	37.550882
5086.000000	37.607695
5084.000000	37.664704
5082.000000	37.721638
5080.000000	37.778182
5078.000000	37.835463
5076.000000	37.892335
5074.000000	37.948889
5072.000000	38.005469
5070.000000	38.062633
5068.000000	38.119480
5066.000000	38.174880
5064.000000	38.230246
5062.000000	38.286863
5060.000000	38.343728
5058.000000	38.400552
5056.000000	38.456764
5054.000000	38.512611
5052.000000	38.567806
5050.000000	38.623672
5048.000000	38.679715
5046.000000	38.735490
5044.000000	38.790197
5042.000000	38.845124
5040.000000	38.900940
5038.000000	38.957648
5036.000000	39.013485
5034.000000	39.069007
5032.000000	39.124502
5030.000000	39.180523
5028.000000	39.236582
5026.000000	39.293084
5024.000000	39.349394
5022.000000	39.404900
5020.000000	39.459977
5018.000000	39.515972
5016.000000	39.572398
5014.000000	39.628834
5012.000000	39.685199
5010.000000	39.742291
5008.000000	39.799567
5006.000000	39.857043
5004.000000	39.914413
5002.000000	39.971655
5000.000000	40.028384
4998.000000	40.085437
4996.000000	40.142639
4994.000000	40.201165
4992.000000	40.259902
4990.000000	40.318959
4988.000000	40.377212
4986.000000	40.435154
4984.000000	40.492746
4982.000000	40.551101
4980.000000	40.609284
4978.000000	40.666867
4976.000000	40.724063
4974.000000	40.781877
4972.000000	40.839513
4970.000000	40.897817
4968.000000	40.956241
4966.000000	41.014739
4964.000000	41.072004
4962.000000	41.129396
4960.000000	41.185878
4958.000000	41.241942
4956.000000	41.298302
4954.000000	41.356325
4952.000000	41.414312
4950.000000	41.472084
4948.000000	41.529536
4946.000000	41.587198
4944.000000	41.643967
4942.000000	41.700220
4940.000000	41.755582
4938.000000	41.811177
4936.000000	41.867723
4934.000000	41.924974
4932.000000	41.981862
4930.000000	42.038700
4928.000000	42.095539
4926.000000	42.153141
4924.000000	42.210700
4922.000000	42.267835
4920.000000	42.323475
4918.000000	42.379270
4916.000000	42.435822
4914.000000	42.494592
4912.000000	42.553873
4910.000000	42.612216
4908.000000	42.669400
4906.000000	42.727936
4904.000000	42.786490
4902.000000	42.844799
4900.000000	42.903296
4898.000000	42.962115
4896.000000	43.020418
4894.000000	43.080012
4892.000000	43.140306
4890.000000	43.199366
4888.000000	43.257138
4886.000000	43.316344
4884.000000	43.376193
4882.000000	43.436565
4880.000000	43.497117
4878.000000	43.557702
4876.000000	43.616274
4874.000000	43.673712
4872.000000	43.731259
4870.000000	43.789948
4868.000000	43.849104
4866.000000	43.907811
4864.000000	43.966041
4862.000000	44.025495
4860.000000	44.084142
4858.000000	44.141883
4856.000000	44.199018
4854.000000	44.256929
4852.000000	44.313805
4850.000000	44.371595
4848.000000	44.429768
4846.000000	44.487608
4844.000000	44.544218
4842.000000	44.601836
4840.000000	44.659789
4838.000000	44.718223
4836.000000	44.776143
4834.000000	44.833971
4832.000000	44.891540
4830.000000	44.949134
4828.000000	45.006520
4826.000000	45.064715
4824.000000	45.123476
4822.000000	45.182462
4820.000000	45.240246
4818.000000	45.298034
4816.000000	45.355889
4814.000000	45.415026
4812.000000	45.473925
4810.000000	45.533084
4808.000000	45.592084
4806.000000	45.652180
4804.000000	45.712991
4802.000000	45.774453
4800.000000	45.834767
4798.000000	45.893874
4796.000000	45.952830
4794.000000	46.013408
4792.000000	46.074557
4790.000000	46.134691
4788.000000	46.193822
4786.000000	46.254448
4784.000000	46.315870
4782.000000	46.376437
4780.000000	46.436166
4778.000000	46.496665
4776.000000	46.556793
4774.000000	46.616437
4772.000000	46.675737
4770.000000	46.735809
4768.000000	46.795893
4766.000000	46.855682
4764.000000	46.913679
4762.000000	46.971142
4760.000000	47.028259
4758.000000	47.086978
4756.000000	47.145830
4754.000000	47.204810
4752.000000	47.263742
4750.000000	47.323654
4748.000000	47.381662
4746.000000	47.438163
4744.000000	47.494412
4742.000000	47.552329
4740.000000	47.610906
4738.000000	47.670040
4736.000000	47.728180
4734.000000	47.786163
4732.000000	47.844274
4730.000000	47.903517
4728.000000	47.962324
4726.000000	48.021530
4724.000000	48.080652
4722.000000	48.139720
4720.000000	48.198604
4718.000000	48.259127
4716.000000	48.320999
4714.000000	48.383664
4712.000000	48.445855
4710.000000	48.508428
4708.000000	48.570982
4706.000000	48.634168
4704.000000	48.696939
4702.000000	48.760454
4700.000000	48.824046
4698.000000	48.887246
4696.000000	48.948707
4694.000000	49.009075
4692.000000	49.068822
4690.000000	49.129673
4688.000000	49.191653
4686.000000	49.254284
4684.000000	49.316275
4682.000000	49.377667
4680.000000	49.438193
4678.000000	49.499903
4676.000000	49.562394
4674.000000	49.624204
4672.000000	49.684390
4670.000000	49.745195
4668.000000	49.806696
4666.000000	49.868464
4664.000000	49.928698
4662.000000	49.988994
4660.000000	50.049720
4658.000000	50.111027
4656.000000	50.171897
4654.000000	50.233618
4652.000000	50.295565
4650.000000	50.357306
4648.000000	50.417917
4646.000000	50.478652
4644.000000	50.538855
4642.000000	50.599089
4640.000000	50.659318
4638.000000	50.720115
4636.000000	50.780543
4634.000000	50.842650
4632.000000	50.904840
4630.000000	50.965698
4628.000000	51.025844
4626.000000	51.087890
4624.000000	51.150205
4622.000000	51.212281
4620.000000	51.273721
4618.000000	51.335781
4616.000000	51.397713
4614.000000	51.461465
4612.000000	51.526171
4610.000000	51.591398
4608.000000	51.656029
4606.000000	51.720889
4604.000000	51.785105
4602.000000	51.849839
4600.000000	51.914880
4598.000000	51.980463
4596.000000	52.045617
4594.000000	52.110451
4592.000000	52.175327
4590.000000	52.240662
4588.000000	52.304646
4586.000000	52.368085
4584.000000	52.431485
4582.000000	52.495156
4580.000000	52.558740
4578.000000	52.623663
4576.000000	52.688364
4574.000000	52.752031
4572.000000	52.814976
4570.000000	52.879399
4568.000000	52.944253
4566.000000	53.008564
4564.000000	53.071059
4562.000000	53.133950
4560.000000	53.197257
4558.000000	53.260806
4556.000000	53.323047
4554.000000	53.385730
4552.000000	53.448672
4550.000000	53.512380
4548.000000	53.575052
4546.000000	53.636682
4544.000000	53.697869
4542.000000	53.760335
4540.000000	53.822015
4538.000000	53.884045
4536.000000	53.946699
4534.000000	54.009082
4532.000000	54.070708
4530.000000	54.134142
4528.000000	54.198374
4526.000000	54.263540
4524.000000	54.327606
4522.000000	54.390923
4520.000000	54.453956
4518.000000	54.518163
4516.000000	54.583181
4514.000000	54.648755
4512.000000	54.713117
4510.000000	54.778860
4508.000000	54.843897
4506.000000	54.907931
4504.000000	54.973288
4502.000000	55.040298
4500.000000	55.105240
4498.000000	55.170394
4496.000000	55.236037
4494.000000	55.302008
4492.000000	55.367153
4490.000000	55.432252
4488.000000	55.497776
4486.000000	55.564108
4484.000000	55.628427
4482.000000	55.692104
4480.000000	55.755823
4478.000000	55.820348
4476.000000	55.883976
4474.000000	55.947842
4472.000000	56.011095
4470.000000	56.074115
4468.000000	56.136493
4466.000000	56.200678
4464.000000	56.263745
4462.000000	56.324892
4460.000000	56.386425
4458.000000	56.450198
4456.000000	56.512242
4454.000000	56.572804
4452.000000	56.632953
4450.000000	56.695079
4448.000000	56.757956
4446.000000	56.820199
4444.000000	56.881264
4442.000000	56.943943
4440.000000	57.006815
4438.000000	57.069606
4436.000000	57.131974
4434.000000	57.196163
4432.000000	57.260488
4430.000000	57.323374
4428.000000	57.384343
4426.000000	57.447613
4424.000000	57.511779
4422.000000	57.575845
4420.000000	57.639675
4418.000000	57.704753
4416.000000	57.769122
4414.000000	57.833487
4412.000000	57.896805
4410.000000	57.960675
4408.000000	58.024984
4406.000000	58.089989
4404.000000	58.154333
4402.000000	58.218325
4400.000000	58.281565
4398.000000	58.345540
4396.000000	58.409422
4394.000000	58.474103
4392.000000	58.537690
4390.000000	58.600277
4388.000000	58.662281
4386.000000	58.724706
4384.000000	58.786122
4382.000000	58.846929
4380.000000	58.906940
4378.000000	58.967744
4376.000000	59.028754
4374.000000	59.089910
4372.000000	59.149561
4370.000000	59.209397
4368.000000	59.269260
4366.000000	59.328432
4364.000000	59.387932
4362.000000	59.450394
4360.000000	59.512625
4358.000000	59.574395
4356.000000	59.635640
4354.000000	59.696890
4352.000000	59.759074
4350.000000	59.823499
4348.000000	59.886918
4346.000000	59.950018
4344.000000	60.013595
4342.000000	60.077501
4340.000000	60.140604
4338.000000	60.204592
4336.000000	60.268610
4334.000000	60.332312
4332.000000	60.395706
4330.000000	60.460257
4328.000000	60.523844
4326.000000	60.587593
4324.000000	60.652499
4322.000000	60.719571
4320.000000	60.787627
4318.000000	60.855761
4316.000000	60.923044
4314.000000	60.991988
4312.000000	61.060056
4310.000000	61.126264
4308.000000	61.191638
4306.000000	61.258696
4304.000000	61.325852
4302.000000	61.392390
4300.000000	61.457894
4298.000000	61.523904
4296.000000	61.589252
4294.000000	61.654362
4292.000000	61.718286
4290.000000	61.782104
4288.000000	61.844899
4286.000000	61.906933
4284.000000	61.967512
4282.000000	62.027894
4280.000000	62.087753
4278.000000	62.147802
4276.000000	62.206657
4274.000000	62.265841
4272.000000	62.325167
4270.000000	62.384806
4268.000000	62.443028
4266.000000	62.501468
4264.000000	62.561819
4262.000000	62.624952
4260.000000	62.687744
4258.000000	62.750915
4256.000000	62.814102
4254.000000	62.877575
4252.000000	62.940844
4250.000000	63.004869
4248.000000	63.068844
4246.000000	63.133177
4244.000000	63.196391
4242.000000	63.260528
4240.000000	63.324955
4238.000000	63.389078
4236.000000	63.453049
4234.000000	63.518319
4232.000000	63.582752
4230.000000	63.647285
4228.000000	63.711913
4226.000000	63.777093
4224.000000	63.841174
4222.000000	63.905247
4220.000000	63.968753
4218.000000	64.032222
4216.000000	64.095710
4214.000000	64.160814
4212.000000	64.226147
4210.000000	64.292103
4208.000000	64.358405
4206.000000	64.426191
4204.000000	64.494074
4202.000000	64.562412
4200.000000	64.630121
4198.000000	64.698166
4196.000000	64.766316
4194.000000	64.835266
4192.000000	64.903414
4190.000000	64.972035
4188.000000	65.040553
4186.000000	65.107783
4184.000000	65.172127
4182.000000	65.236704
4180.000000	65.301902
4178.000000	65.368098
4176.000000	65.434037
4174.000000	65.499833
4172.000000	65.564261
4170.000000	65.628638
4168.000000	65.693099
4166.000000	65.757747
4164.000000	65.820853
4162.000000	65.884269
4160.000000	65.948466
4158.000000	66.014174
4156.000000	66.079263
4154.000000	66.143476
4152.000000	66.207356
4150.000000	66.272324
4148.000000	66.336783
4146.000000	66.401641
4144.000000	66.466216
4142.000000	66.530719
4140.000000	66.594620
4138.000000	66.660339
4136.000000	66.726724
4134.000000	66.792930
4132.000000	66.858692
4130.000000	66.925255
4128.000000	66.990945
4126.000000	67.057095
4124.000000	67.122875
4122.000000	67.188372
4120.000000	67.254086
4118.000000	67.321206
4116.000000	67.387408
4114.000000	67.454375
4112.000000	67.520637
4110.000000	67.584718
4108.000000	67.646801
4106.000000	67.710211
4104.000000	67.775560
4102.000000	67.842412
4100.000000	67.907302
4098.000000	67.970900
4096.000000	68.033629
4094.000000	68.097176
4092.000000	68.161080
4090.000000	68.227523
4088.000000	68.297114
4086.000000	68.369062
4084.000000	68.439839
4082.000000	68.508633
4080.000000	68.575373
4078.000000	68.642503
4076.000000	68.708402
4074.000000	68.773851
4072.000000	68.839129
4070.000000	68.904592
4068.000000	68.969985
4066.000000	69.035617
4064.000000	69.099080
4062.000000	69.162010
4060.000000	69.225552
4058.000000	69.292218
4056.000000	69.359664
4054.000000	69.424931
4052.000000	69.488460
4050.000000	69.552620
4048.000000	69.613193
4046.000000	69.671807
4044.000000	69.735985
4042.000000	69.807947
4040.000000	69.878985
4038.000000	69.945948
4036.000000	70.010653
4034.000000	70.077437
4032.000000	70.145883
4030.000000	70.213962
4028.000000	70.278586
4026.000000	70.342992
4024.000000	70.410925
4022.000000	70.480434
4020.000000	70.548014
4018.000000	70.617420
4016.000000	70.687275
4014.000000	70.756627
4012.000000	70.823606
4010.000000	70.888332
4008.000000	70.956184
4006.000000	71.029366
4004.000000	71.101075
4002.000000	71.170953
4000.000000	71.238602
3998.000000	71.302022
3996.000000	71.362116
3994.000000	71.424163
3992.000000	71.487470
3990.000000	71.554351
3988.000000	71.624281
3986.000000	71.690284
3984.000000	71.749976
3982.000000	71.812257
3980.000000	71.876462
3978.000000	71.933442
3976.000000	71.985068
3974.000000	72.043834
3972.000000	72.108767
3970.000000	72.176022
3968.000000	72.244882
3966.000000	72.307944
3964.000000	72.356092
3962.000000	72.406161
3960.000000	72.471166
3958.000000	72.540360
3956.000000	72.603308
3954.000000	72.653716
3952.000000	72.680174
3950.000000	72.704035
3948.000000	72.763295
3946.000000	72.830688
3944.000000	72.873379
3942.000000	72.950060
3940.000000	73.069676
3938.000000	73.164445
3936.000000	73.189593
3934.000000	73.163821
3932.000000	73.187825
3930.000000	73.304016
3928.000000	73.404458
3926.000000	73.443866
3924.000000	73.494673
3922.000000	73.546014
3920.000000	73.539009
3918.000000	73.558451
3916.000000	73.710521
3914.000000	73.913815
3912.000000	74.044110
3910.000000	74.090640
3908.000000	73.996716
3906.000000	73.730510
3904.000000	73.503898
3902.000000	73.511240
3900.000000	73.742985
3898.000000	74.110621
3896.000000	74.374325
3894.000000	74.329921
3892.000000	74.218194
3890.000000	74.291624
3888.000000	74.273452
3886.000000	74.188683
3884.000000	74.335993
3882.000000	74.504762
3880.000000	74.648152
3878.000000	74.840629
3876.000000	74.877800
3874.000000	74.732115
3872.000000	74.457482
3870.000000	74.357127
3868.000000	74.588989
3866.000000	74.773070
3864.000000	74.899352
3862.000000	75.154735
3860.000000	75.363087
3858.000000	75.060487
3856.000000	73.998800
3854.000000	73.260157
3852.000000	73.915428
3850.000000	75.143588
3848.000000	75.811659
3846.000000	75.892239
3844.000000	75.764107
3842.000000	75.528213
3840.000000	75.091905
3838.000000	74.879117
3836.000000	75.255066
3834.000000	75.752607
3832.000000	76.051312
3830.000000	76.272736
3828.000000	76.407004
3826.000000	76.417573
3824.000000	76.170831
3822.000000	75.862153
3820.000000	75.865253
3818.000000	75.843637
3816.000000	75.911851
3814.000000	76.485106
3812.000000	76.985439
3810.000000	76.897195
3808.000000	76.572846
3806.000000	76.535628
3804.000000	76.434817
3802.000000	76.218984
3800.000000	76.527120
3798.000000	77.041679
3796.000000	77.347512
3794.000000	77.594055
3792.000000	77.765538
3790.000000	77.838840
3788.000000	77.860440
3786.000000	77.870142
3784.000000	77.898993
3782.000000	77.881401
3780.000000	77.858546
3778.000000	77.990727
3776.000000	78.180848
3774.000000	78.218336
3772.000000	78.063170
3770.000000	77.956034
3768.000000	78.045097
3766.000000	78.204168
3764.000000	78.349338
3762.000000	78.357009
3760.000000	78.278691
3758.000000	78.319513
3756.000000	78.215287
3754.000000	77.585269
3752.000000	76.896068
3750.000000	76.907627
3748.000000	77.174784
3746.000000	76.936084
3744.000000	77.105338
3742.000000	78.087175
3740.000000	78.602774
3738.000000	78.327548
3736.000000	78.058407
3734.000000	78.173887
3732.000000	78.572677
3730.000000	79.039230
3728.000000	79.238912
3726.000000	79.258166
3724.000000	79.331177
3722.000000	79.460091
3720.000000	79.627647
3718.000000	79.772279
3716.000000	79.700138
3714.000000	79.301091
3712.000000	79.033169
3710.000000	79.300714
3708.000000	79.797835
3706.000000	80.093281
3704.000000	80.089811
3702.000000	80.055259
3700.000000	80.210575
3698.000000	80.393746
3696.000000	80.445246
3694.000000	80.295607
3692.000000	79.843875
3690.000000	79.335378
3688.000000	79.463289
3686.000000	80.179997
3684.000000	80.667914
3682.000000	80.717458
3680.000000	80.459565
3678.000000	79.828588
3676.000000	79.364038
3674.000000	79.537709
3672.000000	79.669290
3670.000000	79.804947
3668.000000	80.404964
3666.000000	80.966756
3664.000000	81.175838
3662.000000	81.207503
3660.000000	81.095368
3658.000000	80.813770
3656.000000	80.706273
3654.000000	80.727118
3652.000000	80.311206
3650.000000	79.824814
3648.000000	80.046519
3646.000000	80.736368
3644.000000	81.223053
3642.000000	81.386298
3640.000000	81.427242
3638.000000	81.429278
3636.000000	81.380789
3634.000000	81.247263
3632.000000	80.803861
3630.000000	80.234397
3628.000000	80.373810
3626.000000	81.052056
3624.000000	81.384453
3622.000000	81.199761
3620.000000	80.926673
3618.000000	80.972575
3616.000000	81.131291
3614.000000	81.112960
3612.000000	81.009588
3610.000000	80.939067
3608.000000	81.063864
3606.000000	81.348456
3604.000000	81.506872
3602.000000	81.494762
3600.000000	81.456836
3598.000000	81.421492
3596.000000	81.374582
3594.000000	81.388288
3592.000000	81.373302
3590.000000	81.161193
3588.000000	80.989666
3586.000000	81.141161
3584.000000	81.401356
3582.000000	81.517775
3580.000000	81.528870
3578.000000	81.524650
3576.000000	81.523082
3574.000000	81.521804
3572.000000	81.457170
3570.000000	81.232349
3568.000000	81.006928
3566.000000	81.059165
3564.000000	81.271748
3562.000000	81.395738
3560.000000	81.436714
3558.000000	81.462228
3556.000000	81.451284
3554.000000	81.397422
3552.000000	81.366555
3550.000000	81.350606
3548.000000	81.278852
3546.000000	81.226370
3544.000000	81.273519
3542.000000	81.349154
3540.000000	81.369922
3538.000000	81.337926
3536.000000	81.310688
3534.000000	81.304343
3532.000000	81.268124
3530.000000	81.194277
3528.000000	81.126636
3526.000000	81.079416
3524.000000	81.047112
3522.000000	81.044550
3520.000000	81.048118
3518.000000	81.032080
3516.000000	81.002797
3514.000000	80.957495
3512.000000	80.891002
3510.000000	80.827638
3508.000000	80.789753
3506.000000	80.730592
3504.000000	80.640874
3502.000000	80.593394
3500.000000	80.580118
3498.000000	80.540273
3496.000000	80.485040
3494.000000	80.439506
3492.000000	80.390754
3490.000000	80.329088
3488.000000	80.270897
3486.000000	80.227996
3484.000000	80.181645
3482.000000	80.139021
3480.000000	80.127637
3478.000000	80.133668
3476.000000	80.133852
3474.000000	80.137017
3472.000000	80.145745
3470.000000	80.149319
3468.000000	80.159391
3466.000000	80.190809
3464.000000	80.228859
3462.000000	80.264715
3460.000000	80.305574
3458.000000	80.347338
3456.000000	80.383442
3454.000000	80.412578
3452.000000	80.432596
3450.000000	80.430773
3448.000000	80.419536
3446.000000	80.445915
3444.000000	80.502754
3442.000000	80.566873
3440.000000	80.644639
3438.000000	80.731395
3436.000000	80.829977
3434.000000	80.951958
3432.000000	81.092352
3430.000000	81.236655
3428.000000	81.380759
3426.000000	81.517894
3424.000000	81.635657
3422.000000	81.737745
3420.000000	81.847132
3418.000000	81.964469
3416.000000	82.067346
3414.000000	82.149572
3412.000000	82.221741
3410.000000	82.288721
3408.000000	82.350570
3406.000000	82.407678
3404.000000	82.455956
3402.000000	82.498517
3400.000000	82.553280
3398.000000	82.630531
3396.000000	82.713399
3394.000000	82.780148
3392.000000	82.844070
3390.000000	82.927355
3388.000000	83.009847
3386.000000	83.074189
3384.000000	83.133852
3382.000000	83.193555
3380.000000	83.249166
3378.000000	83.300551
3376.000000	83.350442
3374.000000	83.397822
3372.000000	83.434109
3370.000000	83.460354
3368.000000	83.496293
3366.000000	83.547714
3364.000000	83.603101
3362.000000	83.655035
3360.000000	83.702949
3358.000000	83.746619
3356.000000	83.788602
3354.000000	83.831365
3352.000000	83.870654
3350.000000	83.911080
3348.000000	83.959026
3346.000000	84.005764
3344.000000	84.046788
3342.000000	84.084772
3340.000000	84.118452
3338.000000	84.150700
3336.000000	84.193876
3334.000000	84.243658
3332.000000	84.289261
3330.000000	84.327461
3328.000000	84.359221
3326.000000	84.390954
3324.000000	84.429773
3322.000000	84.472007
3320.000000	84.511860
3318.000000	84.548605
3316.000000	84.583295
3314.000000	84.615300
3312.000000	84.644852
3310.000000	84.668113
3308.000000	84.687953
3306.000000	84.715598
3304.000000	84.762565
3302.000000	84.816408
3300.000000	84.858917
3298.000000	84.893433
3296.000000	84.925805
3294.000000	84.954204
3292.000000	84.985145
3290.000000	85.029095
3288.000000	85.077454
3286.000000	85.118433
3284.000000	85.156113
3282.000000	85.194621
3280.000000	85.231466
3278.000000	85.263848
3276.000000	85.294474
3274.000000	85.328239
3272.000000	85.366492
3270.000000	85.412037
3268.000000	85.464786
3266.000000	85.512739
3264.000000	85.555722
3262.000000	85.598749
3260.000000	85.642360
3258.000000	85.683765
3256.000000	85.724232
3254.000000	85.771812
3252.000000	85.826651
3250.000000	85.876056
3248.000000	85.916449
3246.000000	85.957101
3244.000000	86.010006
3242.000000	86.067433
3240.000000	86.120332
3238.000000	86.169408
3236.000000	86.214101
3234.000000	86.255080
3232.000000	86.305621
3230.000000	86.363588
3228.000000	86.418214
3226.000000	86.471227
3224.000000	86.522624
3222.000000	86.567840
3220.000000	86.611110
3218.000000	86.659397
3216.000000	86.708889
3214.000000	86.757767
3212.000000	86.810411
3210.000000	86.865598
3208.000000	86.926910
3206.000000	86.992741
3204.000000	87.059606
3202.000000	87.126917
3200.000000	87.194689
3198.000000	87.264022
3196.000000	87.340327
3194.000000	87.418605
3192.000000	87.492514
3190.000000	87.563574
3188.000000	87.634156
3186.000000	87.703298
3184.000000	87.775886
3182.000000	87.848950
3180.000000	87.916240
3178.000000	87.984817
3176.000000	88.061859
3174.000000	88.138717
3172.000000	88.213211
3170.000000	88.286639
3168.000000	88.360561
3166.000000	88.436691
3164.000000	88.514121
3162.000000	88.591475
3160.000000	88.671005
3158.000000	88.750910
3156.000000	88.826911
3154.000000	88.894605
3152.000000	88.966952
3150.000000	89.053233
3148.000000	89.139377
3146.000000	89.217767
3144.000000	89.293580
3142.000000	89.364939
3140.000000	89.433516
3138.000000	89.505183
3136.000000	89.575996
3134.000000	89.641371
3132.000000	89.710822
3130.000000	89.779722
3128.000000	89.842943
3126.000000	89.904161
3124.000000	89.962549
3122.000000	90.012360
3120.000000	90.058189
3118.000000	90.106397
3116.000000	90.163132
3114.000000	90.230684
3112.000000	90.295391
3110.000000	90.347420
3108.000000	90.399980
3106.000000	90.460374
3104.000000	90.518919
3102.000000	90.573584
3100.000000	90.637274
3098.000000	90.705518
3096.000000	90.770594
3094.000000	90.837976
3092.000000	90.904357
3090.000000	90.963673
3088.000000	91.021304
3086.000000	91.073854
3084.000000	91.120376
3082.000000	91.161545
3080.000000	91.197516
3078.000000	91.235858
3076.000000	91.281669
3074.000000	91.318041
3072.000000	91.337613
3070.000000	91.344440
3068.000000	91.346793
3066.000000	91.360972
3064.000000	91.398523
3062.000000	91.451579
3060.000000	91.508838
3058.000000	91.563380
3056.000000	91.622833
3054.000000	91.687889
3052.000000	91.745791
3050.000000	91.795533
3048.000000	91.846579
3046.000000	91.890416
3044.000000	91.919816
3042.000000	91.943386
3040.000000	91.971620
3038.000000	91.994198
3036.000000	92.002494
3034.000000	91.999034
3032.000000	91.986049
3030.000000	91.955986
3028.000000	91.892971
3026.000000	91.786981
3024.000000	91.658396
3022.000000	91.540620
3020.000000	91.474955
3018.000000	91.501490
3016.000000	91.640158
3014.000000	91.872313
3012.000000	92.158069
3010.000000	92.442422
3008.000000	92.677170
3006.000000	92.840906
3004.000000	92.952142
3002.000000	93.033070
3000.000000	93.091812
2998.000000	93.130725
2996.000000	93.160755
2994.000000	93.182596
2992.000000	93.194863
2990.000000	93.196806
2988.000000	93.182611
2986.000000	93.148405
2984.000000	93.090970
2982.000000	93.002551
2980.000000	92.881417
2978.000000	92.716481
2976.000000	92.489245
2974.000000	92.183087
2972.000000	91.788946
2970.000000	91.307239
2968.000000	90.781853
2966.000000	90.296107
2964.000000	89.940506
2962.000000	89.769899
2960.000000	89.784586
2958.000000	89.926670
2956.000000	90.120173
2954.000000	90.305454
2952.000000	90.450061
2950.000000	90.520717
2948.000000	90.484202
2946.000000	90.319961
2944.000000	90.026250
2942.000000	89.614702
2940.000000	89.121442
2938.000000	88.607452
2936.000000	88.134555
2934.000000	87.714486
2932.000000	87.316822
2930.000000	86.925009
2928.000000	86.595974
2926.000000	86.433274
2924.000000	86.542006
2922.000000	86.961639
2920.000000	87.638202
2918.000000	88.455643
2916.000000	89.305861
2914.000000	90.106992
2912.000000	90.802249
2910.000000	91.358276
2908.000000	91.790538
2906.000000	92.139425
2904.000000	92.441638
2902.000000	92.716804
2900.000000	92.972845
2898.000000	93.210818
2896.000000	93.437060
2894.000000	93.653592
2892.000000	93.858859
2890.000000	94.045819
2888.000000	94.209201
2886.000000	94.338288
2884.000000	94.426143
2882.000000	94.468571
2880.000000	94.465587
2878.000000	94.412036
2876.000000	94.300618
2874.000000	94.120090
2872.000000	93.864703
2870.000000	93.506553
2868.000000	93.020712
2866.000000	92.443393
2864.000000	91.900121
2862.000000	91.545817
2860.000000	91.471188
2858.000000	91.640352
2856.000000	91.944505
2854.000000	92.303404
2852.000000	92.716816
2850.000000	93.222923
2848.000000	93.826451
2846.000000	94.446725
2844.000000	94.989150
2842.000000	95.420735
2840.000000	95.759901
2838.000000	96.030770
2836.000000	96.253983
2834.000000	96.437977
2832.000000	96.593934
2830.000000	96.727674
2828.000000	96.848200
2826.000000	96.958766
2824.000000	97.062506
2822.000000	97.156330
2820.000000	97.242268
2818.000000	97.319976
2816.000000	97.389928
2814.000000	97.452380
2812.000000	97.511161
2810.000000	97.564738
2808.000000	97.615882
2806.000000	97.664078
2804.000000	97.710402
2802.000000	97.753739
2800.000000	97.795659
2798.000000	97.836213
2796.000000	97.878915
2794.000000	97.920492
2792.000000	97.966041
2790.000000	98.020163
2788.000000	98.090155
2786.000000	98.172770
2784.000000	98.259254
2782.000000	98.340055
2780.000000	98.414685
2778.000000	98.481145
2776.000000	98.542759
2774.000000	98.599896
2772.000000	98.654604
2770.000000	98.706218
2768.000000	98.757380
2766.000000	98.806670
2764.000000	98.856026
2762.000000	98.902217
2760.000000	98.947255
2758.000000	98.990251
2756.000000	99.032883
2754.000000	99.073892
2752.000000	99.113796
2750.000000	99.151105
2748.000000	99.188405
2746.000000	99.224361
2744.000000	99.261165
2742.000000	99.295910
2740.000000	99.330261
2738.000000	99.362831
2736.000000	99.397119
2734.000000	99.430951
2732.000000	99.464247
2730.000000	99.495979
2728.000000	99.528000
2726.000000	99.559876
2724.000000	99.594171
2722.000000	99.625131
2720.000000	99.656014
2718.000000	99.685761
2716.000000	99.715228
2714.000000	99.742133
2712.000000	99.767295
2710.000000	99.790663
2708.000000	99.815808
2706.000000	99.840907
2704.000000	99.870687
2702.000000	99.905831
2700.000000	99.948636
2698.000000	99.994822
2696.000000	100.042901
2694.000000	100.088240
2692.000000	100.131609
2690.000000	100.172493
2688.000000	100.214050
2686.000000	100.252834
2684.000000	100.291378
2682.000000	100.328188
2680.000000	100.364242
2678.000000	100.396093
2676.000000	100.428398
2674.000000	100.459368
2672.000000	100.489846
2670.000000	100.519132
2668.000000	100.549605
2666.000000	100.577390
2664.000000	100.605621
2662.000000	100.634000
2660.000000	100.664148
2658.000000	100.694861
2656.000000	100.729045
2654.000000	100.763909
2652.000000	100.802607
2650.000000	100.841527
2648.000000	100.881338
2646.000000	100.919580
2644.000000	100.958207
2642.000000	100.993987
2640.000000	101.029052
2638.000000	101.062438
2636.000000	101.096508
2634.000000	101.128468
2632.000000	101.159793
2630.000000	101.188196
2628.000000	101.216994
2626.000000	101.244119
2624.000000	101.271126
2622.000000	101.297786
2620.000000	101.325973
2618.000000	101.352543
2616.000000	101.379416
2614.000000	101.403852
2612.000000	101.428218
2610.000000	101.449317
2608.000000	101.468094
2606.000000	101.484181
2604.000000	101.501093
2602.000000	101.513884
2600.000000	101.524020
2598.000000	101.532260
2596.000000	101.542548
2594.000000	101.555427
2592.000000	101.578028
2590.000000	101.609542
2588.000000	101.652082
2586.000000	101.703367
2584.000000	101.762142
2582.000000	101.822505
2580.000000	101.885035
2578.000000	101.942883
2576.000000	101.995831
2574.000000	102.043191
2572.000000	102.087986
2570.000000	102.127387
2568.000000	102.163966
2566.000000	102.196990
2564.000000	102.229924
2562.000000	102.259549
2560.000000	102.288884
2558.000000	102.316185
2556.000000	102.343281
2554.000000	102.369070
2552.000000	102.395472
2550.000000	102.420480
2548.000000	102.446939
2546.000000	102.471393
2544.000000	102.497766
2542.000000	102.523417
2540.000000	102.550243
2538.000000	102.575693
2536.000000	102.602691
2534.000000	102.627780
2532.000000	102.654344
2530.000000	102.680293
2528.000000	102.705798
2526.000000	102.727948
2524.000000	102.752812
2522.000000	102.776242
2520.000000	102.800009
2518.000000	102.822216
2516.000000	102.845753
2514.000000	102.868836
2512.000000	102.892911
2510.000000	102.913483
2508.000000	102.933966
2506.000000	102.952892
2504.000000	102.974770
2502.000000	102.996310
2500.000000	103.019874
2498.000000	103.043407
2496.000000	103.068513
2494.000000	103.093237
2492.000000	103.121371
2490.000000	103.147260
2488.000000	103.173618
2486.000000	103.198895
2484.000000	103.224595
2482.000000	103.249369
2480.000000	103.276022
2478.000000	103.298901
2476.000000	103.320829
2474.000000	103.339660
2472.000000	103.359431
2470.000000	103.377985
2468.000000	103.397536
2466.000000	103.414182
2464.000000	103.431499
2462.000000	103.447189
2460.000000	103.464389
2458.000000	103.478861
2456.000000	103.494461
2454.000000	103.510531
2452.000000	103.528330
2450.000000	103.542821
2448.000000	103.559165
2446.000000	103.575374
2444.000000	103.592670
2442.000000	103.606577
2440.000000	103.621159
2438.000000	103.635888
2436.000000	103.652015
2434.000000	103.664516
2432.000000	103.676939
2430.000000	103.686348
2428.000000	103.697143
2426.000000	103.708991
2424.000000	103.726089
2422.000000	103.741558
2420.000000	103.756306
2418.000000	103.768968
2416.000000	103.782220
2414.000000	103.793618
2412.000000	103.805716
2410.000000	103.815035
2408.000000	103.827485
2406.000000	103.839964
2404.000000	103.855142
2402.000000	103.869584
2400.000000	103.886199
2398.000000	103.901790
2396.000000	103.919361
2394.000000	103.935688
2392.000000	103.954158
2390.000000	103.970085
2388.000000	103.982706
2386.000000	103.984161
2384.000000	103.971780
2382.000000	103.933231
2380.000000	103.859758
2378.000000	103.736776
2376.000000	103.563525
2374.000000	103.339471
2372.000000	103.080065
2370.000000	102.803685
2368.000000	102.542291
2366.000000	102.323711
2364.000000	102.179128
2362.000000	102.128759
2360.000000	102.188310
2358.000000	102.355365
2356.000000	102.626171
2354.000000	102.977440
2352.000000	103.369301
2350.000000	103.653796
2348.000000	103.638901
2346.000000	103.383552
2344.000000	103.112770
2342.000000	102.914824
2340.000000	102.800879
2338.000000	102.752019
2336.000000	102.751316
2334.000000	102.783851
2332.000000	102.850594
2330.000000	102.945684
2328.000000	103.065359
2326.000000	103.194306
2324.000000	103.328680
2322.000000	103.462260
2320.000000	103.590480
2318.000000	103.705257
2316.000000	103.810851
2314.000000	103.901570
2312.000000	103.981804
2310.000000	104.048324
2308.000000	104.104736
2306.000000	104.149526
2304.000000	104.188447
2302.000000	104.218510
2300.000000	104.246202
2298.000000	104.267015
2296.000000	104.286379
2294.000000	104.302095
2292.000000	104.318723
2290.000000	104.330687
2288.000000	104.343011
2286.000000	104.352399
2284.000000	104.360244
2282.000000	104.360055
2280.000000	104.358508
2278.000000	104.353454
2276.000000	104.349305
2274.000000	104.343166
2272.000000	104.338732
2270.000000	104.331867
2268.000000	104.328055
2266.000000	104.322142
2264.000000	104.319685
2262.000000	104.315693
2260.000000	104.314013
2258.000000	104.312112
2256.000000	104.314751
2254.000000	104.316225
2252.000000	104.320979
2250.000000	104.324699
2248.000000	104.332729
2246.000000	104.341201
2244.000000	104.353313
2242.000000	104.364559
2240.000000	104.378892
2238.000000	104.390890
2236.000000	104.405715
2234.000000	104.417439
2232.000000	104.431108
2230.000000	104.444383
2228.000000	104.458611
2226.000000	104.467446
2224.000000	104.478091
2222.000000	104.486172
2220.000000	104.496007
2218.000000	104.502636
2216.000000	104.511381
2214.000000	104.516719
2212.000000	104.522453
2210.000000	104.524523
2208.000000	104.530185
2206.000000	104.533681
2204.000000	104.539759
2202.000000	104.544246
2200.000000	104.550414
2198.000000	104.553586
2196.000000	104.558361
2194.000000	104.558571
2192.000000	104.559652
2190.000000	104.558275
2188.000000	104.559053
2186.000000	104.556934
2184.000000	104.558253
2182.000000	104.557396
2180.000000	104.558908
2178.000000	104.556844
2176.000000	104.554768
2174.000000	104.543325
2172.000000	104.520669
2170.000000	104.496087
2168.000000	104.508095
2166.000000	104.530490
2164.000000	104.540776
2162.000000	104.539420
2160.000000	104.537960
2158.000000	104.535208
2156.000000	104.538394
2154.000000	104.536176
2152.000000	104.534498
2150.000000	104.531048
2148.000000	104.531785
2146.000000	104.530329
2144.000000	104.532071
2142.000000	104.529516
2140.000000	104.526647
2138.000000	104.520819
2136.000000	104.519640
2134.000000	104.518943
2132.000000	104.520416
2130.000000	104.517712
2128.000000	104.517182
2126.000000	104.515466
2124.000000	104.517004
2122.000000	104.517588
2120.000000	104.520840
2118.000000	104.522827
2116.000000	104.526616
2114.000000	104.531618
2112.000000	104.543071
2110.000000	104.553099
2108.000000	104.566286
2106.000000	104.578708
2104.000000	104.594110
2102.000000	104.605993
2100.000000	104.618519
2098.000000	104.626595
2096.000000	104.640459
2094.000000	104.652263
2092.000000	104.663236
2090.000000	104.670475
2088.000000	104.690468
2086.000000	104.708516
2084.000000	104.727625
2082.000000	104.739852
2080.000000	104.757478
2078.000000	104.772522
2076.000000	104.791404
2074.000000	104.806387
2072.000000	104.826826
2070.000000	104.843360
2068.000000	104.858700
2066.000000	104.861591
2064.000000	104.885310
2062.000000	104.918711
2060.000000	104.946078
2058.000000	104.966957
2056.000000	104.990546
2054.000000	105.009773
2052.000000	105.031609
2050.000000	105.050041
2048.000000	105.072808
2046.000000	105.088710
2044.000000	105.102010
2042.000000	105.108140
2040.000000	105.132362
2038.000000	105.156299
2036.000000	105.172099
2034.000000	105.179234
2032.000000	105.180474
2030.000000	105.161453
2028.000000	105.171627
2026.000000	105.206025
2024.000000	105.229357
2022.000000	105.236796
2020.000000	105.231269
2018.000000	105.213770
2016.000000	105.241712
2014.000000	105.291607
2012.000000	105.321848
2010.000000	105.335093
2008.000000	105.350531
2006.000000	105.362660
2004.000000	105.375271
2002.000000	105.379890
2000.000000	105.384995
1998.000000	105.388433
1996.000000	105.386519
1994.000000	105.328851
1992.000000	105.281081
1990.000000	105.320275
1988.000000	105.363901
1986.000000	105.380710
1984.000000	105.384487
1982.000000	105.373677
1980.000000	105.363758
1978.000000	105.348524
1976.000000	105.334332
1974.000000	105.317115
1972.000000	105.299681
1970.000000	105.254073
1968.000000	105.182875
1966.000000	105.167142
1964.000000	105.187412
1962.000000	105.134645
1960.000000	105.014069
1958.000000	104.983060
1956.000000	105.062871
1954.000000	105.090536
1952.000000	105.075389
1950.000000	105.040603
1948.000000	105.012035
1946.000000	104.951969
1944.000000	104.831748
1942.000000	104.785398
1940.000000	104.886064
1938.000000	104.922532
1936.000000	104.903689
1934.000000	104.870408
1932.000000	104.847082
1930.000000	104.819294
1928.000000	104.793938
1926.000000	104.725038
1924.000000	104.605859
1922.000000	104.542113
1920.000000	104.424307
1918.000000	104.268051
1916.000000	104.403909
1914.000000	104.502440
1912.000000	104.439668
1910.000000	104.335242
1908.000000	104.301283
1906.000000	104.285100
1904.000000	104.251393
1902.000000	104.197225
1900.000000	104.154410
1898.000000	104.082193
1896.000000	104.001312
1894.000000	103.967446
1892.000000	103.905613
1890.000000	103.766053
1888.000000	103.820859
1886.000000	103.906191
1884.000000	103.913594
1882.000000	103.898319
1880.000000	103.881581
1878.000000	103.851607
1876.000000	103.834458
1874.000000	103.792263
1872.000000	103.610683
1870.000000	103.239182
1868.000000	103.204662
1866.000000	103.477076
1864.000000	103.620285
1862.000000	103.607137
1860.000000	103.575293
1858.000000	103.542555
1856.000000	103.525571
1854.000000	103.488577
1852.000000	103.450198
1850.000000	103.358356
1848.000000	103.173687
1846.000000	102.653302
1844.000000	102.339525
1842.000000	102.799775
1840.000000	103.115324
1838.000000	103.063808
1836.000000	103.013703
1834.000000	102.938242
1832.000000	102.622099
1830.000000	102.301282
1828.000000	102.384220
1826.000000	102.353696
1824.000000	102.385995
1822.000000	102.545138
1820.000000	102.538376
1818.000000	102.443213
1816.000000	102.385801
1814.000000	102.286018
1812.000000	102.089163
1810.000000	101.973195
1808.000000	101.986484
1806.000000	101.932919
1804.000000	101.735503
1802.000000	101.415636
1800.000000	101.270481
1798.000000	101.310627
1796.000000	101.176158
1794.000000	100.548483
1792.000000	100.210941
1790.000000	100.630747
1788.000000	100.869227
1786.000000	100.637980
1784.000000	100.489469
1782.000000	100.403900
1780.000000	100.306142
1778.000000	100.271315
1776.000000	99.946412
1774.000000	99.041358
1772.000000	98.598496
1770.000000	99.046452
1768.000000	99.310672
1766.000000	99.577035
1764.000000	99.414758
1762.000000	99.001621
1760.000000	99.067897
1758.000000	99.002679
1756.000000	98.874113
1754.000000	98.654691
1752.000000	97.871700
1750.000000	97.631713
1748.000000	97.910385
1746.000000	98.023383
1744.000000	97.887579
1742.000000	97.514564
1740.000000	97.146041
1738.000000	97.130464
1736.000000	96.141979
1734.000000	95.127737
1732.000000	96.118280
1730.000000	97.062627
1728.000000	97.310354
1726.000000	97.319235
1724.000000	97.213598
1722.000000	97.022215
1720.000000	96.063879
1718.000000	94.732019
1716.000000	95.003259
1714.000000	96.015822
1712.000000	96.530403
1710.000000	96.491940
1708.000000	96.132958
1706.000000	95.682752
1704.000000	95.444977
1702.000000	94.194891
1700.000000	93.267380
1698.000000	93.629746
1696.000000	93.546886
1694.000000	94.732592
1692.000000	95.776583
1690.000000	95.711740
1688.000000	95.192318
1686.000000	93.494860
1684.000000	92.853154
1682.000000	94.394582
1680.000000	95.290717
1678.000000	95.106875
1676.000000	94.382358
1674.000000	94.392869
1672.000000	94.475639
1670.000000	94.030521
1668.000000	94.326181
1666.000000	94.756635
1664.000000	94.402931
1662.000000	94.231757
1660.000000	94.533013
1658.000000	94.440184
1656.000000	93.030950
1654.000000	90.400489
1652.000000	90.616736
1650.000000	92.719462
1648.000000	92.592811
1646.000000	92.227278
1644.000000	93.043106
1642.000000	93.526786
1640.000000	93.277778
1638.000000	92.312760
1636.000000	91.184305
1634.000000	91.718111
1632.000000	92.586179
1630.000000	92.432360
1628.000000	91.994589
1626.000000	91.563260
1624.000000	90.909683
1622.000000	90.625891
1620.000000	90.273285
1618.000000	88.950650
1616.000000	88.401364
1614.000000	88.928806
1612.000000	88.665418
1610.000000	88.025397
1608.000000	87.701723
1606.000000	87.756253
1604.000000	87.955758
1602.000000	88.203437
1600.000000	88.452715
1598.000000	88.660383
1596.000000	88.791938
1594.000000	88.904409
1592.000000	88.982998
1590.000000	88.995517
1588.000000	88.964800
1586.000000	88.899168
1584.000000	88.822373
1582.000000	88.767174
1580.000000	88.569152
1578.000000	87.528893
1576.000000	86.798850
1574.000000	87.763419
1572.000000	88.078347
1570.000000	87.544196
1568.000000	87.648435
1566.000000	87.780209
1564.000000	87.452887
1562.000000	86.058500
1560.000000	83.744460
1558.000000	83.789824
1556.000000	85.458029
1554.000000	86.363512
1552.000000	87.044424
1550.000000	87.413458
1548.000000	87.598642
1546.000000	87.366970
1544.000000	86.805684
1542.000000	85.841118
1540.000000	85.301967
1538.000000	86.783925
1536.000000	88.247481
1534.000000	88.246564
1532.000000	88.613418
1530.000000	88.993984
1528.000000	88.751975
1526.000000	88.382318
1524.000000	87.925959
1522.000000	87.073519
1520.000000	87.250409
1518.000000	87.752637
1516.000000	87.805360
1514.000000	87.860470
1512.000000	87.648653
1510.000000	86.984720
1508.000000	85.290686
1506.000000	84.505261
1504.000000	85.350396
1502.000000	84.884792
1500.000000	82.337318
1498.000000	78.849383
1496.000000	76.329476
1494.000000	76.163467
1492.000000	77.247402
1490.000000	78.870765
1488.000000	80.875273
1486.000000	82.609117
1484.000000	83.748626
1482.000000	84.260715
1480.000000	84.495409
1478.000000	84.345983
1476.000000	83.834927
1474.000000	83.083456
1472.000000	82.911309
1470.000000	83.468693
1468.000000	83.440037
1466.000000	82.715221
1464.000000	82.321571
1462.000000	82.168364
1460.000000	81.025703
1458.000000	78.919472
1456.000000	77.942198
1454.000000	78.100718
1452.000000	77.814510
1450.000000	77.862256
1448.000000	78.641136
1446.000000	79.685642
1444.000000	80.235319
1442.000000	80.361336
1440.000000	80.184322
1438.000000	79.532315
1436.000000	79.441624
1434.000000	80.162767
1432.000000	80.324075
1430.000000	80.232011
1428.000000	80.301986
1426.000000	80.324439
1424.000000	80.178050
1422.000000	79.847626
1420.000000	79.085620
1418.000000	79.086757
1416.000000	79.521134
1414.000000	79.501126
1412.000000	79.151285
1410.000000	78.630729
1408.000000	77.865120
1406.000000	76.994386
1404.000000	76.524092
1402.000000	76.559922
1400.000000	76.697874
1398.000000	77.088793
1396.000000	77.426233
1394.000000	77.766985
1392.000000	78.232129
1390.000000	78.236877
1388.000000	77.813389
1386.000000	77.587795
1384.000000	77.601384
1382.000000	77.725680
1380.000000	77.814859
1378.000000	77.744307
1376.000000	77.535622
1374.000000	77.366552
1372.000000	77.388448
1370.000000	77.328058
1368.000000	77.174315
1366.000000	77.008048
1364.000000	76.707126
1362.000000	76.495798
1360.000000	76.470354
1358.000000	76.390127
1356.000000	76.199306
1354.000000	75.993316
1352.000000	75.790485
1350.000000	75.573706
1348.000000	75.358001
1346.000000	75.136498
1344.000000	74.883944
1342.000000	74.573525
1340.000000	74.270080
1338.000000	74.144156
1336.000000	74.115749
1334.000000	74.047101
1332.000000	73.900971
1330.000000	73.710121
1328.000000	73.489348
1326.000000	73.246523
1324.000000	72.980946
1322.000000	72.691638
1320.000000	72.370605
1318.000000	72.067804
1316.000000	71.779446
1314.000000	71.472150
1312.000000	71.163139
1310.000000	70.859735
1308.000000	70.536026
1306.000000	70.207174
1304.000000	69.867428
1302.000000	69.524545
1300.000000	69.179727
1298.000000	68.833558
1296.000000	68.477437
1294.000000	68.113309
1292.000000	67.729309
1290.000000	67.333391
1288.000000	66.929815
1286.000000	66.533107
1284.000000	66.121178
1282.000000	65.688477
1280.000000	65.231860
1278.000000	64.746989
1276.000000	64.209130
1274.000000	63.591909
1272.000000	62.859142
1270.000000	61.973815
1268.000000	60.867901
1266.000000	59.547245
1264.000000	58.175910
1262.000000	57.074283
1260.000000	56.522267
1258.000000	56.531293
1256.000000	56.823104
1254.000000	57.068038
1252.000000	57.066302
1250.000000	56.823682
1248.000000	56.429390
1246.000000	55.959188
1244.000000	55.449840
1242.000000	54.935046
1240.000000	54.425049
1238.000000	53.932758
1236.000000	53.453674
1234.000000	52.990225
1232.000000	52.534930
1230.000000	52.088595
1228.000000	51.643268
1226.000000	51.193339
1224.000000	50.732432
1222.000000	50.261161
1220.000000	49.768805
1218.000000	49.259140
1216.000000	48.736920
1214.000000	48.219288
1212.000000	47.726041
1210.000000	47.273929
1208.000000	46.855213
1206.000000	46.457460
1204.000000	46.060924
1202.000000	45.661630
1200.000000	45.265204
1198.000000	44.877587
1196.000000	44.485183
1194.000000	44.080999
1192.000000	43.662600
1190.000000	43.233938
1188.000000	42.789751
1186.000000	42.318113
1184.000000	41.735172
1182.000000	41.007733
1180.000000	40.441551
1178.000000	40.192674
1176.000000	39.959376
1174.000000	39.602382
1172.000000	39.175620
1170.000000	38.727016
1168.000000	38.260208
1166.000000	37.784974
1164.000000	37.313672
1162.000000	36.855350
1160.000000	36.400108
1158.000000	35.963321
1156.000000	35.541893
1154.000000	35.123358
1152.000000	34.696774
1150.000000	34.276017
1148.000000	33.847858
1146.000000	33.408814
1144.000000	32.977635
1142.000000	32.598753
1140.000000	32.287488
1138.000000	31.975292
1136.000000	31.615205
1134.000000	31.223800
1132.000000	30.809881
1130.000000	30.383858
1128.000000	29.961133
1126.000000	29.541697
1124.000000	29.112879
1122.000000	28.676363
1120.000000	28.227135
1118.000000	27.769521
1116.000000	27.304545
1114.000000	26.835954
1112.000000	26.365938
1110.000000	25.903656
1108.000000	25.450815
1106.000000	25.016108
1104.000000	24.597180
1102.000000	24.186880
1100.000000	23.774664
1098.000000	23.366441
1096.000000	22.969322
1094.000000	22.586969
1092.000000	22.218516
1090.000000	21.866643
1088.000000	21.524109
1086.000000	21.187667
1084.000000	20.841166
1082.000000	20.484214
1080.000000	20.147148
1078.000000	19.843658
1076.000000	19.567524
1074.000000	19.334090
1072.000000	19.117398
1070.000000	18.894084
1068.000000	18.665386
1066.000000	18.433916
1064.000000	18.200417
1062.000000	17.966953
1060.000000	17.720679
1058.000000	17.435880
1056.000000	17.048491
1054.000000	16.535879
1052.000000	16.027293
1050.000000	15.728440
1048.000000	15.695551
1046.000000	15.777252
1044.000000	15.779224
1042.000000	15.662806
1040.000000	15.477304
1038.000000	15.264893
1036.000000	15.037254
1034.000000	14.799907
1032.000000	14.552645
1030.000000	14.296788
1028.000000	14.030622
1026.000000	13.761738
1024.000000	13.490781
1022.000000	13.223273
1020.000000	12.968048
1018.000000	12.733095
1016.000000	12.519836
1014.000000	12.331219
1012.000000	12.160750
1010.000000	12.001520
1008.000000	11.836135
1006.000000	11.657534
1004.000000	11.462137
1002.000000	11.252141
1000.000000	11.023238
