PE IR       SUBTECH     SPECTRUM    ASCII       PEDS        4.00        
   -1
TE110A_051_80K_AFTER_115K_BG.ASC
20/05/14
14:00:11.00
20/05/14
14:00:11.00
Administrator
TE110A.Thursday, May 14 2020, 003.
1000.000000
#HDR
-1
-1
#GR
cm-1
EGY
1.0
0.0
6000.000000
-2.000000
2501
8
105.512219
11.034051
#DATA
6000.000000	16.659113
5998.000000	16.690868
5996.000000	16.721871
5994.000000	16.754242
5992.000000	16.787517
5990.000000	16.821197
5988.000000	16.854247
5986.000000	16.887301
5984.000000	16.920366
5982.000000	16.953579
5980.000000	16.986654
5978.000000	17.020432
5976.000000	17.053919
5974.000000	17.087103
5972.000000	17.120440
5970.000000	17.154571
5968.000000	17.190035
5966.000000	17.224950
5964.000000	17.258943
5962.000000	17.292572
5960.000000	17.325998
5958.000000	17.360857
5956.000000	17.395664
5954.000000	17.430400
5952.000000	17.464477
5950.000000	17.498378
5948.000000	17.531926
5946.000000	17.565784
5944.000000	17.599366
5942.000000	17.633017
5940.000000	17.666709
5938.000000	17.700190
5936.000000	17.733928
5934.000000	17.768409
5932.000000	17.802767
5930.000000	17.836479
5928.000000	17.869292
5926.000000	17.903417
5924.000000	17.939196
5922.000000	17.975588
5920.000000	18.011282
5918.000000	18.046794
5916.000000	18.082823
5914.000000	18.119264
5912.000000	18.155388
5910.000000	18.191611
5908.000000	18.228454
5906.000000	18.265852
5904.000000	18.302515
5902.000000	18.338809
5900.000000	18.374541
5898.000000	18.410903
5896.000000	18.447336
5894.000000	18.483790
5892.000000	18.520560
5890.000000	18.557347
5888.000000	18.593729
5886.000000	18.629546
5884.000000	18.665178
5882.000000	18.700996
5880.000000	18.736760
5878.000000	18.772684
5876.000000	18.808101
5874.000000	18.844148
5872.000000	18.881056
5870.000000	18.918891
5868.000000	18.956677
5866.000000	18.993461
5864.000000	19.030323
5862.000000	19.068116
5860.000000	19.106099
5858.000000	19.143719
5856.000000	19.180536
5854.000000	19.218157
5852.000000	19.256936
5850.000000	19.296032
5848.000000	19.335308
5846.000000	19.374276
5844.000000	19.413803
5842.000000	19.455087
5840.000000	19.496410
5838.000000	19.538654
5836.000000	19.580195
5834.000000	19.621867
5832.000000	19.663256
5830.000000	19.704323
5828.000000	19.746020
5826.000000	19.788338
5824.000000	19.830307
5822.000000	19.871551
5820.000000	19.911365
5818.000000	19.950873
5816.000000	19.990763
5814.000000	20.031981
5812.000000	20.073055
5810.000000	20.113829
5808.000000	20.154430
5806.000000	20.195299
5804.000000	20.235809
5802.000000	20.276148
5800.000000	20.316480
5798.000000	20.357244
5796.000000	20.397685
5794.000000	20.438206
5792.000000	20.479207
5790.000000	20.520679
5788.000000	20.562175
5786.000000	20.603817
5784.000000	20.645742
5782.000000	20.687626
5780.000000	20.728843
5778.000000	20.769882
5776.000000	20.811217
5774.000000	20.853600
5772.000000	20.895490
5770.000000	20.937688
5768.000000	20.980503
5766.000000	21.022804
5764.000000	21.064080
5762.000000	21.105172
5760.000000	21.147135
5758.000000	21.189803
5756.000000	21.231533
5754.000000	21.272885
5752.000000	21.314611
5750.000000	21.356737
5748.000000	21.398684
5746.000000	21.439959
5744.000000	21.480827
5742.000000	21.521753
5740.000000	21.562348
5738.000000	21.603064
5736.000000	21.643294
5734.000000	21.684085
5732.000000	21.724839
5730.000000	21.765462
5728.000000	21.805491
5726.000000	21.845779
5724.000000	21.886934
5722.000000	21.929315
5720.000000	21.971953
5718.000000	22.014390
5716.000000	22.056598
5714.000000	22.099324
5712.000000	22.143040
5710.000000	22.187837
5708.000000	22.232231
5706.000000	22.276159
5704.000000	22.319769
5702.000000	22.363806
5700.000000	22.408342
5698.000000	22.452782
5696.000000	22.497024
5694.000000	22.541949
5692.000000	22.587463
5690.000000	22.633383
5688.000000	22.679005
5686.000000	22.724570
5684.000000	22.770137
5682.000000	22.815441
5680.000000	22.860374
5678.000000	22.905453
5676.000000	22.950607
5674.000000	22.996208
5672.000000	23.041722
5670.000000	23.087406
5668.000000	23.133068
5666.000000	23.178398
5664.000000	23.223742
5662.000000	23.269290
5660.000000	23.314809
5658.000000	23.359893
5656.000000	23.404518
5654.000000	23.449805
5652.000000	23.495663
5650.000000	23.541729
5648.000000	23.587002
5646.000000	23.631890
5644.000000	23.676607
5642.000000	23.722246
5640.000000	23.768558
5638.000000	23.814647
5636.000000	23.860169
5634.000000	23.905732
5632.000000	23.950553
5630.000000	23.995433
5628.000000	24.040314
5626.000000	24.085892
5624.000000	24.131182
5622.000000	24.175808
5620.000000	24.220627
5618.000000	24.266139
5616.000000	24.311764
5614.000000	24.357240
5612.000000	24.402893
5610.000000	24.448568
5608.000000	24.494403
5606.000000	24.540203
5604.000000	24.585740
5602.000000	24.631713
5600.000000	24.677492
5598.000000	24.723520
5596.000000	24.769837
5594.000000	24.816540
5592.000000	24.863048
5590.000000	24.909048
5588.000000	24.955221
5586.000000	25.002629
5584.000000	25.050259
5582.000000	25.097489
5580.000000	25.144252
5578.000000	25.191624
5576.000000	25.239498
5574.000000	25.287146
5572.000000	25.334224
5570.000000	25.380990
5568.000000	25.428438
5566.000000	25.476442
5564.000000	25.524577
5562.000000	25.572855
5560.000000	25.621305
5558.000000	25.669473
5556.000000	25.716186
5554.000000	25.762314
5552.000000	25.808861
5550.000000	25.856295
5548.000000	25.903991
5546.000000	25.952668
5544.000000	26.001572
5542.000000	26.049315
5540.000000	26.095091
5538.000000	26.140402
5536.000000	26.187416
5534.000000	26.236346
5532.000000	26.284854
5530.000000	26.333048
5528.000000	26.380013
5526.000000	26.425912
5524.000000	26.470918
5522.000000	26.516968
5520.000000	26.564372
5518.000000	26.612557
5516.000000	26.661034
5514.000000	26.709602
5512.000000	26.756146
5510.000000	26.799995
5508.000000	26.844853
5506.000000	26.893699
5504.000000	26.944885
5502.000000	26.994882
5500.000000	27.042648
5498.000000	27.087718
5496.000000	27.128094
5494.000000	27.167982
5492.000000	27.212787
5490.000000	27.265734
5488.000000	27.322511
5486.000000	27.379911
5484.000000	27.434857
5482.000000	27.485900
5480.000000	27.527801
5478.000000	27.562575
5476.000000	27.602589
5474.000000	27.655316
5472.000000	27.714074
5470.000000	27.766999
5468.000000	27.814054
5466.000000	27.859734
5464.000000	27.902931
5462.000000	27.948444
5460.000000	28.000205
5458.000000	28.057239
5456.000000	28.114314
5454.000000	28.165091
5452.000000	28.208370
5450.000000	28.245297
5448.000000	28.282105
5446.000000	28.325120
5444.000000	28.372115
5442.000000	28.426740
5440.000000	28.482671
5438.000000	28.532299
5436.000000	28.578140
5434.000000	28.623775
5432.000000	28.667870
5430.000000	28.713215
5428.000000	28.768842
5426.000000	28.837014
5424.000000	28.902475
5422.000000	28.958722
5420.000000	29.007563
5418.000000	29.040614
5416.000000	29.061242
5414.000000	29.088034
5412.000000	29.136948
5410.000000	29.205040
5408.000000	29.274293
5406.000000	29.337450
5404.000000	29.393802
5402.000000	29.445681
5400.000000	29.491097
5398.000000	29.525995
5396.000000	29.558317
5394.000000	29.605183
5392.000000	29.668085
5390.000000	29.729006
5388.000000	29.774812
5386.000000	29.820825
5384.000000	29.878829
5382.000000	29.937180
5380.000000	29.977247
5378.000000	30.011353
5376.000000	30.060249
5374.000000	30.127816
5372.000000	30.196754
5370.000000	30.256463
5368.000000	30.305740
5366.000000	30.350159
5364.000000	30.397515
5362.000000	30.451996
5360.000000	30.506618
5358.000000	30.548150
5356.000000	30.577691
5354.000000	30.614833
5352.000000	30.667734
5350.000000	30.724606
5348.000000	30.763486
5346.000000	30.798096
5344.000000	30.845670
5342.000000	30.898041
5340.000000	30.945732
5338.000000	30.998414
5336.000000	31.065907
5334.000000	31.135290
5332.000000	31.190152
5330.000000	31.234179
5328.000000	31.281419
5326.000000	31.339610
5324.000000	31.405071
5322.000000	31.465046
5320.000000	31.517099
5318.000000	31.565778
5316.000000	31.615445
5314.000000	31.667030
5312.000000	31.714726
5310.000000	31.755994
5308.000000	31.799700
5306.000000	31.853529
5304.000000	31.912056
5302.000000	31.967049
5300.000000	32.019804
5298.000000	32.074230
5296.000000	32.126761
5294.000000	32.170037
5292.000000	32.209497
5290.000000	32.256798
5288.000000	32.312942
5286.000000	32.371363
5284.000000	32.425456
5282.000000	32.479791
5280.000000	32.535521
5278.000000	32.593123
5276.000000	32.649789
5274.000000	32.701752
5272.000000	32.748220
5270.000000	32.791870
5268.000000	32.829745
5266.000000	32.864670
5264.000000	32.908862
5262.000000	32.971901
5260.000000	33.041378
5258.000000	33.095456
5256.000000	33.140293
5254.000000	33.190981
5252.000000	33.241977
5250.000000	33.283673
5248.000000	33.323615
5246.000000	33.377423
5244.000000	33.445304
5242.000000	33.515101
5240.000000	33.579316
5238.000000	33.633019
5236.000000	33.680942
5234.000000	33.726655
5232.000000	33.773997
5230.000000	33.820227
5228.000000	33.861981
5226.000000	33.907588
5224.000000	33.965849
5222.000000	34.030960
5220.000000	34.089217
5218.000000	34.143792
5216.000000	34.200752
5214.000000	34.255815
5212.000000	34.297837
5210.000000	34.326845
5208.000000	34.359960
5206.000000	34.416231
5204.000000	34.491189
5202.000000	34.563058
5200.000000	34.618099
5198.000000	34.667360
5196.000000	34.721665
5194.000000	34.780763
5192.000000	34.836768
5190.000000	34.888162
5188.000000	34.936705
5186.000000	34.987568
5184.000000	35.043203
5182.000000	35.103233
5180.000000	35.161888
5178.000000	35.218320
5176.000000	35.273036
5174.000000	35.326550
5172.000000	35.380174
5170.000000	35.435782
5168.000000	35.491162
5166.000000	35.544126
5164.000000	35.596699
5162.000000	35.651938
5160.000000	35.707081
5158.000000	35.760570
5156.000000	35.814617
5154.000000	35.870478
5152.000000	35.926486
5150.000000	35.982089
5148.000000	36.037543
5146.000000	36.091462
5144.000000	36.143237
5142.000000	36.196044
5140.000000	36.251267
5138.000000	36.307297
5136.000000	36.361002
5134.000000	36.414685
5132.000000	36.469228
5130.000000	36.523962
5128.000000	36.578286
5126.000000	36.633495
5124.000000	36.687911
5122.000000	36.740590
5120.000000	36.792966
5118.000000	36.847436
5116.000000	36.902422
5114.000000	36.957274
5112.000000	37.011804
5110.000000	37.067111
5108.000000	37.122563
5106.000000	37.177927
5104.000000	37.233725
5102.000000	37.289758
5100.000000	37.344872
5098.000000	37.399689
5096.000000	37.455106
5094.000000	37.511748
5092.000000	37.568780
5090.000000	37.626260
5088.000000	37.683143
5086.000000	37.740028
5084.000000	37.796808
5082.000000	37.853270
5080.000000	37.909347
5078.000000	37.966080
5076.000000	38.022359
5074.000000	38.078795
5072.000000	38.135478
5070.000000	38.192925
5068.000000	38.249938
5066.000000	38.306604
5064.000000	38.362745
5062.000000	38.418806
5060.000000	38.474206
5058.000000	38.529862
5056.000000	38.586293
5054.000000	38.643557
5052.000000	38.699636
5050.000000	38.755178
5048.000000	38.810784
5046.000000	38.867070
5044.000000	38.923579
5042.000000	38.980349
5040.000000	39.036371
5038.000000	39.092615
5036.000000	39.148550
5034.000000	39.203837
5032.000000	39.258253
5030.000000	39.313923
5028.000000	39.370406
5026.000000	39.426074
5024.000000	39.480976
5022.000000	39.536985
5020.000000	39.593465
5018.000000	39.649791
5016.000000	39.705735
5014.000000	39.762284
5012.000000	39.818842
5010.000000	39.876658
5008.000000	39.934810
5006.000000	39.992475
5004.000000	40.048919
5002.000000	40.106190
5000.000000	40.163967
4998.000000	40.221992
4996.000000	40.279575
4994.000000	40.338301
4992.000000	40.397393
4990.000000	40.455964
4988.000000	40.513536
4986.000000	40.571960
4984.000000	40.630432
4982.000000	40.688771
4980.000000	40.746998
4978.000000	40.805552
4976.000000	40.863601
4974.000000	40.921424
4972.000000	40.979049
4970.000000	41.036737
4968.000000	41.094311
4966.000000	41.151836
4964.000000	41.209138
4962.000000	41.267112
4960.000000	41.325251
4958.000000	41.383646
4956.000000	41.441083
4954.000000	41.496950
4952.000000	41.552130
4950.000000	41.609179
4948.000000	41.667122
4946.000000	41.724567
4944.000000	41.781085
4942.000000	41.838005
4940.000000	41.895094
4938.000000	41.952149
4936.000000	42.008162
4934.000000	42.064344
4932.000000	42.121230
4930.000000	42.178632
4928.000000	42.235035
4926.000000	42.291185
4924.000000	42.347831
4922.000000	42.405641
4920.000000	42.463715
4918.000000	42.521827
4916.000000	42.579396
4914.000000	42.636209
4912.000000	42.692947
4910.000000	42.751910
4908.000000	42.811615
4906.000000	42.870220
4904.000000	42.927777
4902.000000	42.986479
4900.000000	43.045656
4898.000000	43.105318
4896.000000	43.164881
4894.000000	43.224409
4892.000000	43.283382
4890.000000	43.342299
4888.000000	43.401239
4886.000000	43.461114
4884.000000	43.521108
4882.000000	43.580578
4880.000000	43.639212
4878.000000	43.698482
4876.000000	43.757725
4874.000000	43.817053
4872.000000	43.875818
4870.000000	43.934530
4868.000000	43.992356
4866.000000	44.050531
4864.000000	44.109433
4862.000000	44.168628
4860.000000	44.227047
4858.000000	44.285439
4856.000000	44.343568
4854.000000	44.401107
4852.000000	44.457923
4850.000000	44.515547
4848.000000	44.573928
4846.000000	44.632699
4844.000000	44.690447
4842.000000	44.748082
4840.000000	44.805283
4838.000000	44.862349
4836.000000	44.919368
4834.000000	44.977053
4832.000000	45.034808
4830.000000	45.093281
4828.000000	45.151812
4826.000000	45.210359
4824.000000	45.268230
4822.000000	45.325810
4820.000000	45.383227
4818.000000	45.442188
4816.000000	45.501208
4814.000000	45.560364
4812.000000	45.619941
4810.000000	45.680233
4808.000000	45.739107
4806.000000	45.798116
4804.000000	45.858032
4802.000000	45.919233
4800.000000	45.979871
4798.000000	46.040716
4796.000000	46.101391
4794.000000	46.161786
4792.000000	46.221581
4790.000000	46.282339
4788.000000	46.343316
4786.000000	46.404195
4784.000000	46.464221
4782.000000	46.524275
4780.000000	46.583835
4778.000000	46.643897
4776.000000	46.704178
4774.000000	46.765037
4772.000000	46.824664
4770.000000	46.883795
4768.000000	46.942740
4766.000000	47.002735
4764.000000	47.062174
4762.000000	47.121505
4760.000000	47.179958
4758.000000	47.239238
4756.000000	47.298247
4754.000000	47.356659
4752.000000	47.414467
4750.000000	47.473092
4748.000000	47.531258
4746.000000	47.589024
4744.000000	47.646750
4742.000000	47.705199
4740.000000	47.763362
4738.000000	47.820935
4736.000000	47.877693
4734.000000	47.935264
4732.000000	47.993783
4730.000000	48.053112
4728.000000	48.112223
4726.000000	48.171746
4724.000000	48.231500
4722.000000	48.291668
4720.000000	48.351362
4718.000000	48.411728
4716.000000	48.472583
4714.000000	48.533894
4712.000000	48.595343
4710.000000	48.658247
4708.000000	48.721674
4706.000000	48.785373
4704.000000	48.849210
4702.000000	48.913296
4700.000000	48.975665
4698.000000	49.037615
4696.000000	49.099248
4694.000000	49.161219
4692.000000	49.223078
4690.000000	49.285827
4688.000000	49.347757
4686.000000	49.409420
4684.000000	49.471086
4682.000000	49.533053
4680.000000	49.594210
4678.000000	49.655418
4676.000000	49.716298
4674.000000	49.777298
4672.000000	49.838250
4670.000000	49.899677
4668.000000	49.960871
4666.000000	50.022339
4664.000000	50.083142
4662.000000	50.143850
4660.000000	50.204401
4658.000000	50.265500
4656.000000	50.326181
4654.000000	50.387559
4652.000000	50.448900
4650.000000	50.510240
4648.000000	50.571074
4646.000000	50.632927
4644.000000	50.694651
4642.000000	50.755967
4640.000000	50.816799
4638.000000	50.878397
4636.000000	50.939512
4634.000000	51.000376
4632.000000	51.060633
4630.000000	51.121897
4628.000000	51.183392
4626.000000	51.245420
4624.000000	51.306239
4622.000000	51.367125
4620.000000	51.428874
4618.000000	51.491837
4616.000000	51.554426
4614.000000	51.618194
4612.000000	51.683033
4610.000000	51.748319
4608.000000	51.812931
4606.000000	51.877855
4604.000000	51.942942
4602.000000	52.008668
4600.000000	52.073320
4598.000000	52.137627
4596.000000	52.201969
4594.000000	52.267332
4592.000000	52.332425
4590.000000	52.397765
4588.000000	52.462610
4586.000000	52.527397
4584.000000	52.591893
4582.000000	52.656499
4580.000000	52.720037
4578.000000	52.783761
4576.000000	52.847272
4574.000000	52.910903
4572.000000	52.974711
4570.000000	53.039119
4568.000000	53.102719
4566.000000	53.166830
4564.000000	53.230967
4562.000000	53.294659
4560.000000	53.356493
4558.000000	53.418170
4556.000000	53.480880
4554.000000	53.544895
4552.000000	53.607750
4550.000000	53.670022
4548.000000	53.732049
4546.000000	53.794704
4544.000000	53.857081
4542.000000	53.920278
4540.000000	53.983376
4538.000000	54.046593
4536.000000	54.109079
4534.000000	54.171546
4532.000000	54.233972
4530.000000	54.297669
4528.000000	54.360767
4526.000000	54.423921
4524.000000	54.487425
4522.000000	54.551195
4520.000000	54.614704
4518.000000	54.679708
4516.000000	54.744964
4514.000000	54.810303
4512.000000	54.874861
4510.000000	54.939602
4508.000000	55.004646
4506.000000	55.070920
4504.000000	55.136676
4502.000000	55.202099
4500.000000	55.267122
4498.000000	55.332933
4496.000000	55.398927
4494.000000	55.465325
4492.000000	55.530636
4490.000000	55.595938
4488.000000	55.661124
4486.000000	55.727019
4484.000000	55.791706
4482.000000	55.855305
4480.000000	55.918679
4478.000000	55.983564
4476.000000	56.047571
4474.000000	56.110858
4472.000000	56.173555
4470.000000	56.236788
4468.000000	56.299854
4466.000000	56.363004
4464.000000	56.425325
4462.000000	56.487861
4460.000000	56.550407
4458.000000	56.613533
4456.000000	56.675697
4454.000000	56.737730
4452.000000	56.799658
4450.000000	56.862235
4448.000000	56.924289
4446.000000	56.986485
4444.000000	57.047928
4442.000000	57.110136
4440.000000	57.172752
4438.000000	57.235991
4436.000000	57.298421
4434.000000	57.361303
4432.000000	57.424529
4430.000000	57.488409
4428.000000	57.551254
4426.000000	57.614358
4424.000000	57.677197
4422.000000	57.740500
4420.000000	57.804446
4418.000000	57.869831
4416.000000	57.934809
4414.000000	57.999431
4412.000000	58.063023
4410.000000	58.127311
4408.000000	58.191874
4406.000000	58.256596
4404.000000	58.321064
4402.000000	58.386257
4400.000000	58.450729
4398.000000	58.515224
4396.000000	58.578769
4394.000000	58.642168
4392.000000	58.705288
4390.000000	58.768478
4388.000000	58.830482
4386.000000	58.892868
4384.000000	58.954862
4382.000000	59.016055
4380.000000	59.075618
4378.000000	59.135975
4376.000000	59.196954
4374.000000	59.258192
4372.000000	59.317892
4370.000000	59.377281
4368.000000	59.437416
4366.000000	59.498627
4364.000000	59.558589
4362.000000	59.618563
4360.000000	59.679388
4358.000000	59.741998
4356.000000	59.804711
4354.000000	59.867477
4352.000000	59.929946
4350.000000	59.993332
4348.000000	60.057362
4346.000000	60.122035
4344.000000	60.185070
4342.000000	60.247860
4340.000000	60.310589
4338.000000	60.373672
4336.000000	60.436244
4334.000000	60.499541
4332.000000	60.563595
4330.000000	60.629418
4328.000000	60.694742
4326.000000	60.760275
4324.000000	60.826286
4322.000000	60.892597
4320.000000	60.958531
4318.000000	61.025700
4316.000000	61.093048
4314.000000	61.161516
4312.000000	61.230096
4310.000000	61.298241
4308.000000	61.365236
4306.000000	61.432436
4304.000000	61.498871
4302.000000	61.564738
4300.000000	61.629404
4298.000000	61.694684
4296.000000	61.759858
4294.000000	61.825281
4292.000000	61.889307
4290.000000	61.952546
4288.000000	62.015104
4286.000000	62.078071
4284.000000	62.139970
4282.000000	62.200721
4280.000000	62.259215
4278.000000	62.318309
4276.000000	62.378620
4274.000000	62.438743
4272.000000	62.497202
4270.000000	62.556578
4268.000000	62.616330
4266.000000	62.676054
4264.000000	62.736115
4262.000000	62.798454
4260.000000	62.861307
4258.000000	62.924659
4256.000000	62.988008
4254.000000	63.051728
4252.000000	63.115456
4250.000000	63.180099
4248.000000	63.244132
4246.000000	63.307400
4244.000000	63.369436
4242.000000	63.432960
4240.000000	63.497513
4238.000000	63.562411
4236.000000	63.627485
4234.000000	63.693697
4232.000000	63.758631
4230.000000	63.823091
4228.000000	63.887380
4226.000000	63.951779
4224.000000	64.015355
4222.000000	64.079452
4220.000000	64.143283
4218.000000	64.207877
4216.000000	64.271925
4214.000000	64.336394
4212.000000	64.402231
4210.000000	64.469699
4208.000000	64.536117
4206.000000	64.602812
4204.000000	64.669734
4202.000000	64.737036
4200.000000	64.803662
4198.000000	64.871938
4196.000000	64.941406
4194.000000	65.010630
4192.000000	65.078500
4190.000000	65.147352
4188.000000	65.215787
4186.000000	65.283188
4184.000000	65.348662
4182.000000	65.414488
4180.000000	65.480906
4178.000000	65.547633
4176.000000	65.612648
4174.000000	65.677254
4172.000000	65.741568
4170.000000	65.806431
4168.000000	65.870379
4166.000000	65.934408
4164.000000	65.998269
4162.000000	66.062350
4160.000000	66.126141
4158.000000	66.190772
4156.000000	66.254622
4154.000000	66.318834
4152.000000	66.383369
4150.000000	66.448714
4148.000000	66.513539
4146.000000	66.578721
4144.000000	66.644158
4142.000000	66.709819
4140.000000	66.774515
4138.000000	66.839540
4136.000000	66.903990
4134.000000	66.969792
4132.000000	67.036966
4130.000000	67.104472
4128.000000	67.170340
4126.000000	67.235883
4124.000000	67.301598
4122.000000	67.368689
4120.000000	67.435633
4118.000000	67.502559
4116.000000	67.568183
4114.000000	67.633551
4112.000000	67.698441
4110.000000	67.763032
4108.000000	67.825763
4106.000000	67.889706
4104.000000	67.956140
4102.000000	68.022907
4100.000000	68.086864
4098.000000	68.150358
4096.000000	68.213887
4094.000000	68.278431
4092.000000	68.343026
4090.000000	68.408824
4088.000000	68.476955
4086.000000	68.548713
4084.000000	68.619494
4082.000000	68.686600
4080.000000	68.752163
4078.000000	68.820292
4076.000000	68.888175
4074.000000	68.954908
4072.000000	69.020445
4070.000000	69.085886
4068.000000	69.150638
4066.000000	69.215032
4064.000000	69.278443
4062.000000	69.342945
4060.000000	69.408317
4058.000000	69.474274
4056.000000	69.539628
4054.000000	69.605460
4052.000000	69.670069
4050.000000	69.734050
4048.000000	69.795241
4046.000000	69.854551
4044.000000	69.918175
4042.000000	69.988323
4040.000000	70.058397
4038.000000	70.126911
4036.000000	70.193735
4034.000000	70.260188
4032.000000	70.326633
4030.000000	70.393997
4028.000000	70.458890
4026.000000	70.523687
4024.000000	70.592566
4022.000000	70.662508
4020.000000	70.730055
4018.000000	70.800391
4016.000000	70.871720
4014.000000	70.940916
4012.000000	71.006792
4010.000000	71.071628
4008.000000	71.139836
4006.000000	71.212678
4004.000000	71.283515
4002.000000	71.352040
4000.000000	71.418890
3998.000000	71.482171
3996.000000	71.542424
3994.000000	71.604708
3992.000000	71.668656
3990.000000	71.736572
3988.000000	71.806646
3986.000000	71.872537
3984.000000	71.932674
3982.000000	71.994570
3980.000000	72.058170
3978.000000	72.116017
3976.000000	72.168743
3974.000000	72.227617
3972.000000	72.292744
3970.000000	72.360589
3968.000000	72.429417
3966.000000	72.491872
3964.000000	72.540060
3962.000000	72.590671
3960.000000	72.655891
3958.000000	72.724522
3956.000000	72.787253
3954.000000	72.838830
3952.000000	72.866275
3950.000000	72.889501
3948.000000	72.947756
3946.000000	73.015668
3944.000000	73.059360
3942.000000	73.135370
3940.000000	73.253346
3938.000000	73.347598
3936.000000	73.373802
3934.000000	73.349628
3932.000000	73.374816
3930.000000	73.490578
3928.000000	73.590074
3926.000000	73.630135
3924.000000	73.681452
3922.000000	73.731634
3920.000000	73.724333
3918.000000	73.744256
3916.000000	73.895444
3914.000000	74.098526
3912.000000	74.230656
3910.000000	74.278685
3908.000000	74.186011
3906.000000	73.923323
3904.000000	73.700643
3902.000000	73.709014
3900.000000	73.938079
3898.000000	74.299996
3896.000000	74.560679
3894.000000	74.519130
3892.000000	74.410667
3890.000000	74.484238
3888.000000	74.467029
3886.000000	74.383981
3884.000000	74.530382
3882.000000	74.698182
3880.000000	74.840730
3878.000000	75.031220
3876.000000	75.067489
3874.000000	74.923382
3872.000000	74.653309
3870.000000	74.555562
3868.000000	74.785961
3866.000000	74.969185
3864.000000	75.094276
3862.000000	75.347009
3860.000000	75.554094
3858.000000	75.255591
3856.000000	74.207869
3854.000000	73.480057
3852.000000	74.127093
3850.000000	75.338983
3848.000000	75.999167
3846.000000	76.079848
3844.000000	75.953967
3842.000000	75.722271
3840.000000	75.293910
3838.000000	75.085929
3836.000000	75.458322
3834.000000	75.950222
3832.000000	76.245024
3830.000000	76.463314
3828.000000	76.596007
3826.000000	76.606656
3824.000000	76.364310
3822.000000	76.062461
3820.000000	76.067733
3818.000000	76.046895
3816.000000	76.114565
3814.000000	76.681321
3812.000000	77.176414
3810.000000	77.090692
3808.000000	76.771019
3806.000000	76.733557
3804.000000	76.634221
3802.000000	76.421898
3800.000000	76.726374
3798.000000	77.235791
3796.000000	77.539386
3794.000000	77.782560
3792.000000	77.951886
3790.000000	78.026404
3788.000000	78.049316
3786.000000	78.058823
3784.000000	78.087729
3782.000000	78.071522
3780.000000	78.049487
3778.000000	78.180469
3776.000000	78.370113
3774.000000	78.408779
3772.000000	78.254888
3770.000000	78.148067
3768.000000	78.236771
3766.000000	78.394745
3764.000000	78.538985
3762.000000	78.547805
3760.000000	78.470812
3758.000000	78.512063
3756.000000	78.410698
3754.000000	77.790080
3752.000000	77.111429
3750.000000	77.124124
3748.000000	77.387699
3746.000000	77.150679
3744.000000	77.317369
3742.000000	78.287662
3740.000000	78.797639
3738.000000	78.526751
3736.000000	78.262256
3734.000000	78.377907
3732.000000	78.772727
3730.000000	79.233537
3728.000000	79.431800
3726.000000	79.452509
3724.000000	79.525032
3722.000000	79.652189
3720.000000	79.818059
3718.000000	79.961213
3716.000000	79.889906
3714.000000	79.496937
3712.000000	79.233746
3710.000000	79.497621
3708.000000	79.988169
3706.000000	80.281174
3704.000000	80.278982
3702.000000	80.246262
3700.000000	80.401746
3698.000000	80.584086
3696.000000	80.635848
3694.000000	80.488324
3692.000000	80.042439
3690.000000	79.541156
3688.000000	79.667700
3686.000000	80.374886
3684.000000	80.856723
3682.000000	80.906808
3680.000000	80.652934
3678.000000	80.030000
3676.000000	79.572517
3674.000000	79.745075
3672.000000	79.874285
3670.000000	80.007447
3668.000000	80.599903
3666.000000	81.154481
3664.000000	81.362023
3662.000000	81.395398
3660.000000	81.284818
3658.000000	81.006715
3656.000000	80.901709
3654.000000	80.922487
3652.000000	80.511157
3650.000000	80.031398
3648.000000	80.251038
3646.000000	80.932040
3644.000000	81.412468
3642.000000	81.573420
3640.000000	81.614102
3638.000000	81.617976
3636.000000	81.571505
3634.000000	81.439092
3632.000000	81.001043
3630.000000	80.439376
3628.000000	80.577205
3626.000000	81.246508
3624.000000	81.574801
3622.000000	81.393160
3620.000000	81.123785
3618.000000	81.168346
3616.000000	81.324356
3614.000000	81.307021
3612.000000	81.204183
3610.000000	81.132618
3608.000000	81.255720
3606.000000	81.537514
3604.000000	81.695015
3602.000000	81.684284
3600.000000	81.647714
3598.000000	81.613024
3596.000000	81.565962
3594.000000	81.578036
3592.000000	81.562762
3590.000000	81.353494
3588.000000	81.183568
3586.000000	81.332839
3584.000000	81.589973
3582.000000	81.705274
3580.000000	81.716843
3578.000000	81.712300
3576.000000	81.710654
3574.000000	81.710072
3572.000000	81.645832
3570.000000	81.421793
3568.000000	81.197846
3566.000000	81.250338
3564.000000	81.461114
3562.000000	81.582875
3560.000000	81.621985
3558.000000	81.646462
3556.000000	81.635388
3554.000000	81.582020
3552.000000	81.551897
3550.000000	81.536764
3548.000000	81.466483
3546.000000	81.414332
3544.000000	81.459897
3542.000000	81.533120
3540.000000	81.552398
3538.000000	81.521134
3536.000000	81.495820
3534.000000	81.491062
3532.000000	81.455228
3530.000000	81.381143
3528.000000	81.313186
3526.000000	81.265871
3524.000000	81.232407
3522.000000	81.228294
3520.000000	81.232056
3518.000000	81.215752
3516.000000	81.185279
3514.000000	81.140202
3512.000000	81.074310
3510.000000	81.011165
3508.000000	80.973128
3506.000000	80.913952
3504.000000	80.825901
3502.000000	80.778854
3500.000000	80.764303
3498.000000	80.723446
3496.000000	80.666997
3494.000000	80.621809
3492.000000	80.573960
3490.000000	80.512367
3488.000000	80.454141
3486.000000	80.409875
3484.000000	80.361994
3482.000000	80.320567
3480.000000	80.310892
3478.000000	80.316628
3476.000000	80.316557
3474.000000	80.319298
3472.000000	80.327081
3470.000000	80.330709
3468.000000	80.339955
3466.000000	80.369629
3464.000000	80.408181
3462.000000	80.445766
3460.000000	80.487310
3458.000000	80.527954
3456.000000	80.562457
3454.000000	80.592116
3452.000000	80.613017
3450.000000	80.611507
3448.000000	80.601910
3446.000000	80.628925
3444.000000	80.684477
3442.000000	80.747388
3440.000000	80.824474
3438.000000	80.911557
3436.000000	81.010529
3434.000000	81.132297
3432.000000	81.272108
3430.000000	81.415300
3428.000000	81.559152
3426.000000	81.697021
3424.000000	81.815479
3422.000000	81.918090
3420.000000	82.028260
3418.000000	82.145525
3416.000000	82.246848
3414.000000	82.328824
3412.000000	82.401826
3410.000000	82.469099
3408.000000	82.530617
3406.000000	82.586979
3404.000000	82.635152
3402.000000	82.678271
3400.000000	82.734053
3398.000000	82.811305
3396.000000	82.893254
3394.000000	82.960074
3392.000000	83.025174
3390.000000	83.108801
3388.000000	83.189869
3386.000000	83.252377
3384.000000	83.311879
3382.000000	83.371788
3380.000000	83.426752
3378.000000	83.478790
3376.000000	83.529685
3374.000000	83.577002
3372.000000	83.612805
3370.000000	83.638879
3368.000000	83.675948
3366.000000	83.729096
3364.000000	83.785544
3362.000000	83.835656
3360.000000	83.880641
3358.000000	83.924310
3356.000000	83.967636
3354.000000	84.011027
3352.000000	84.049965
3350.000000	84.089984
3348.000000	84.137702
3346.000000	84.183194
3344.000000	84.222717
3342.000000	84.260747
3340.000000	84.295937
3338.000000	84.330158
3336.000000	84.372870
3334.000000	84.421601
3332.000000	84.466706
3330.000000	84.504301
3328.000000	84.536414
3326.000000	84.567634
3324.000000	84.606528
3322.000000	84.649759
3320.000000	84.690290
3318.000000	84.727767
3316.000000	84.760970
3314.000000	84.790677
3312.000000	84.820168
3310.000000	84.844637
3308.000000	84.865362
3306.000000	84.892929
3304.000000	84.938491
3302.000000	84.992589
3300.000000	85.036818
3298.000000	85.070210
3296.000000	85.100830
3294.000000	85.129799
3292.000000	85.162136
3290.000000	85.206715
3288.000000	85.254335
3286.000000	85.295304
3284.000000	85.332981
3282.000000	85.370423
3280.000000	85.406744
3278.000000	85.439902
3276.000000	85.471711
3274.000000	85.505741
3272.000000	85.543386
3270.000000	85.589010
3268.000000	85.641145
3266.000000	85.689052
3264.000000	85.732974
3262.000000	85.776077
3260.000000	85.818918
3258.000000	85.859529
3256.000000	85.900679
3254.000000	85.948344
3252.000000	86.001907
3250.000000	86.051326
3248.000000	86.092195
3246.000000	86.133431
3244.000000	86.186930
3242.000000	86.244245
3240.000000	86.297152
3238.000000	86.346628
3236.000000	86.390844
3234.000000	86.430440
3232.000000	86.480238
3230.000000	86.538467
3228.000000	86.593146
3226.000000	86.645943
3224.000000	86.696482
3222.000000	86.741256
3220.000000	86.785919
3218.000000	86.835566
3216.000000	86.884532
3214.000000	86.933059
3212.000000	86.985349
3210.000000	87.039020
3208.000000	87.098904
3206.000000	87.164003
3204.000000	87.232428
3202.000000	87.301568
3200.000000	87.368384
3198.000000	87.437284
3196.000000	87.514193
3194.000000	87.592708
3192.000000	87.666684
3190.000000	87.737147
3188.000000	87.807265
3186.000000	87.876910
3184.000000	87.949049
3182.000000	88.021626
3180.000000	88.089931
3178.000000	88.159709
3176.000000	88.237114
3174.000000	88.313620
3172.000000	88.386727
3170.000000	88.459060
3168.000000	88.533728
3166.000000	88.609834
3164.000000	88.686801
3162.000000	88.764016
3160.000000	88.842160
3158.000000	88.921392
3156.000000	88.998029
3154.000000	89.066745
3152.000000	89.139491
3150.000000	89.225441
3148.000000	89.311720
3146.000000	89.390246
3144.000000	89.465348
3142.000000	89.538036
3140.000000	89.608238
3138.000000	89.679331
3136.000000	89.749878
3134.000000	89.814416
3132.000000	89.883227
3130.000000	89.953739
3128.000000	90.018683
3126.000000	90.079794
3124.000000	90.136091
3122.000000	90.184436
3120.000000	90.230776
3118.000000	90.279582
3116.000000	90.336449
3114.000000	90.402906
3112.000000	90.466190
3110.000000	90.517327
3108.000000	90.570244
3106.000000	90.631572
3104.000000	90.690956
3102.000000	90.746617
3100.000000	90.809875
3098.000000	90.877419
3096.000000	90.943386
3094.000000	91.010124
3092.000000	91.074649
3090.000000	91.134063
3088.000000	91.192340
3086.000000	91.245057
3084.000000	91.292012
3082.000000	91.332273
3080.000000	91.367142
3078.000000	91.406929
3076.000000	91.453056
3074.000000	91.487742
3072.000000	91.506602
3070.000000	91.513673
3068.000000	91.516474
3066.000000	91.531647
3064.000000	91.569844
3062.000000	91.621671
3060.000000	91.676902
3058.000000	91.731393
3056.000000	91.791922
3054.000000	91.857743
3052.000000	91.916279
3050.000000	91.966733
3048.000000	92.016748
3046.000000	92.058600
3044.000000	92.088012
3042.000000	92.112380
3040.000000	92.140624
3038.000000	92.162350
3036.000000	92.169857
3034.000000	92.166075
3032.000000	92.153608
3030.000000	92.124434
3028.000000	92.060806
3026.000000	91.953253
3024.000000	91.824156
3022.000000	91.707202
3020.000000	91.642232
3018.000000	91.667749
3016.000000	91.804755
3014.000000	92.037603
3012.000000	92.324773
3010.000000	92.608419
3008.000000	92.840845
3006.000000	93.005153
3004.000000	93.119063
3002.000000	93.200078
3000.000000	93.257874
2998.000000	93.297721
2996.000000	93.327315
2994.000000	93.346957
2992.000000	93.358369
2990.000000	93.361147
2988.000000	93.348630
2986.000000	93.314113
2984.000000	93.255429
2982.000000	93.166018
2980.000000	93.043489
2978.000000	92.878062
2976.000000	92.651536
2974.000000	92.345309
2972.000000	91.950073
2970.000000	91.467540
2968.000000	90.940568
2966.000000	90.453270
2964.000000	90.096779
2962.000000	89.925316
2960.000000	89.939539
2958.000000	90.082615
2956.000000	90.276835
2954.000000	90.461746
2952.000000	90.605801
2950.000000	90.677027
2948.000000	90.640973
2946.000000	90.475519
2944.000000	90.181034
2942.000000	89.769189
2940.000000	89.275495
2938.000000	88.761137
2936.000000	88.287545
2934.000000	87.865885
2932.000000	87.466322
2930.000000	87.074570
2928.000000	86.745434
2926.000000	86.581565
2924.000000	86.689989
2922.000000	87.111390
2920.000000	87.789096
2918.000000	88.606841
2916.000000	89.458697
2914.000000	90.260890
2912.000000	90.955971
2910.000000	91.512734
2908.000000	91.945452
2906.000000	92.295183
2904.000000	92.597937
2902.000000	92.872142
2900.000000	93.128521
2898.000000	93.368810
2896.000000	93.595918
2894.000000	93.811617
2892.000000	94.016036
2890.000000	94.203464
2888.000000	94.367787
2886.000000	94.496863
2884.000000	94.584750
2882.000000	94.627149
2880.000000	94.624632
2878.000000	94.571215
2876.000000	94.458932
2874.000000	94.278815
2872.000000	94.023695
2870.000000	93.663803
2868.000000	93.176334
2866.000000	92.599135
2864.000000	92.055399
2862.000000	91.700116
2860.000000	91.625180
2858.000000	91.794181
2856.000000	92.098401
2854.000000	92.456604
2852.000000	92.870250
2850.000000	93.378136
2848.000000	93.983781
2846.000000	94.605457
2844.000000	95.148856
2842.000000	95.581349
2840.000000	95.919410
2838.000000	96.189168
2836.000000	96.412587
2834.000000	96.595730
2832.000000	96.751595
2830.000000	96.887601
2828.000000	97.009314
2826.000000	97.118798
2824.000000	97.220286
2822.000000	97.313288
2820.000000	97.400622
2818.000000	97.479576
2816.000000	97.550470
2814.000000	97.613123
2812.000000	97.671291
2810.000000	97.724861
2808.000000	97.776226
2806.000000	97.824139
2804.000000	97.870909
2802.000000	97.915272
2800.000000	97.957181
2798.000000	97.996246
2796.000000	98.037165
2794.000000	98.078283
2792.000000	98.124797
2790.000000	98.180157
2788.000000	98.250625
2786.000000	98.331869
2784.000000	98.416518
2782.000000	98.497308
2780.000000	98.573241
2778.000000	98.640803
2776.000000	98.702044
2774.000000	98.759534
2772.000000	98.815512
2770.000000	98.866707
2768.000000	98.917573
2766.000000	98.966712
2764.000000	99.014412
2762.000000	99.059076
2760.000000	99.104160
2758.000000	99.147608
2756.000000	99.191131
2754.000000	99.232819
2752.000000	99.273686
2750.000000	99.311794
2748.000000	99.348542
2746.000000	99.382891
2744.000000	99.418035
2742.000000	99.452421
2740.000000	99.487618
2738.000000	99.520971
2736.000000	99.554794
2734.000000	99.587950
2732.000000	99.621759
2730.000000	99.654455
2728.000000	99.686777
2726.000000	99.717359
2724.000000	99.749830
2722.000000	99.781461
2720.000000	99.813150
2718.000000	99.842924
2716.000000	99.872725
2714.000000	99.900391
2712.000000	99.926162
2710.000000	99.948732
2708.000000	99.972241
2706.000000	99.997153
2704.000000	100.027494
2702.000000	100.062613
2700.000000	100.104942
2698.000000	100.150535
2696.000000	100.197784
2694.000000	100.243091
2692.000000	100.287024
2690.000000	100.328565
2688.000000	100.370314
2686.000000	100.409369
2684.000000	100.448222
2682.000000	100.484480
2680.000000	100.519242
2678.000000	100.551734
2676.000000	100.585172
2674.000000	100.616567
2672.000000	100.647201
2670.000000	100.676205
2668.000000	100.705695
2666.000000	100.733539
2664.000000	100.762130
2662.000000	100.789692
2660.000000	100.819134
2658.000000	100.849059
2656.000000	100.882453
2654.000000	100.917949
2652.000000	100.957009
2650.000000	100.996076
2648.000000	101.036507
2646.000000	101.074827
2644.000000	101.112287
2642.000000	101.147534
2640.000000	101.182948
2638.000000	101.216934
2636.000000	101.251591
2634.000000	101.282812
2632.000000	101.313710
2630.000000	101.342152
2628.000000	101.371020
2626.000000	101.398622
2624.000000	101.426867
2622.000000	101.453622
2620.000000	101.481236
2618.000000	101.507830
2616.000000	101.534515
2614.000000	101.558605
2612.000000	101.582664
2610.000000	101.602954
2608.000000	101.622252
2606.000000	101.639232
2604.000000	101.654864
2602.000000	101.666153
2600.000000	101.676936
2598.000000	101.685180
2596.000000	101.695150
2594.000000	101.708737
2592.000000	101.731782
2590.000000	101.763453
2588.000000	101.805896
2586.000000	101.855352
2584.000000	101.913436
2582.000000	101.975098
2580.000000	102.038067
2578.000000	102.096343
2576.000000	102.149800
2574.000000	102.196230
2572.000000	102.239332
2570.000000	102.277519
2568.000000	102.314866
2566.000000	102.348969
2564.000000	102.382287
2562.000000	102.411962
2560.000000	102.440443
2558.000000	102.466965
2556.000000	102.494578
2554.000000	102.520579
2552.000000	102.546826
2550.000000	102.571755
2548.000000	102.598211
2546.000000	102.622308
2544.000000	102.647937
2542.000000	102.673063
2540.000000	102.699762
2538.000000	102.726059
2536.000000	102.753709
2534.000000	102.779448
2532.000000	102.806164
2530.000000	102.831433
2528.000000	102.856176
2526.000000	102.879044
2524.000000	102.903740
2522.000000	102.926229
2520.000000	102.949723
2518.000000	102.972221
2516.000000	102.997118
2514.000000	103.020134
2512.000000	103.043149
2510.000000	103.063726
2508.000000	103.084214
2506.000000	103.103408
2504.000000	103.124611
2502.000000	103.145058
2500.000000	103.168688
2498.000000	103.191298
2496.000000	103.216677
2494.000000	103.242884
2492.000000	103.270172
2490.000000	103.294929
2488.000000	103.321573
2486.000000	103.346568
2484.000000	103.372766
2482.000000	103.397401
2480.000000	103.422238
2478.000000	103.444994
2476.000000	103.468421
2474.000000	103.488787
2472.000000	103.509064
2470.000000	103.526694
2468.000000	103.544636
2466.000000	103.560735
2464.000000	103.578152
2462.000000	103.593101
2460.000000	103.609000
2458.000000	103.624393
2456.000000	103.641963
2454.000000	103.657810
2452.000000	103.674934
2450.000000	103.690400
2448.000000	103.707694
2446.000000	103.722471
2444.000000	103.738373
2442.000000	103.752814
2440.000000	103.768610
2438.000000	103.781581
2436.000000	103.795820
2434.000000	103.809710
2432.000000	103.824076
2430.000000	103.833742
2428.000000	103.843667
2426.000000	103.855360
2424.000000	103.872231
2422.000000	103.887356
2420.000000	103.902605
2418.000000	103.914706
2416.000000	103.927194
2414.000000	103.937740
2412.000000	103.949548
2410.000000	103.960479
2408.000000	103.974056
2406.000000	103.986148
2404.000000	104.000215
2402.000000	104.013352
2400.000000	104.029145
2398.000000	104.045431
2396.000000	104.064403
2394.000000	104.080998
2392.000000	104.097741
2390.000000	104.111669
2388.000000	104.124776
2386.000000	104.128548
2384.000000	104.118352
2382.000000	104.081396
2380.000000	104.009530
2378.000000	103.890918
2376.000000	103.724093
2374.000000	103.507823
2372.000000	103.257076
2370.000000	102.990912
2368.000000	102.739605
2366.000000	102.527916
2364.000000	102.388574
2362.000000	102.341270
2360.000000	102.400525
2358.000000	102.562070
2356.000000	102.823066
2354.000000	103.162013
2352.000000	103.540250
2350.000000	103.814683
2348.000000	103.800027
2346.000000	103.553752
2344.000000	103.292372
2342.000000	103.101604
2340.000000	102.992227
2338.000000	102.944088
2336.000000	102.943257
2334.000000	102.975927
2332.000000	103.040357
2330.000000	103.131346
2328.000000	103.246375
2326.000000	103.371294
2324.000000	103.501990
2322.000000	103.628971
2320.000000	103.752505
2318.000000	103.864174
2316.000000	103.965906
2314.000000	104.054373
2312.000000	104.133607
2310.000000	104.198174
2308.000000	104.252662
2306.000000	104.295668
2304.000000	104.332786
2302.000000	104.361697
2300.000000	104.387789
2298.000000	104.408316
2296.000000	104.428064
2294.000000	104.443458
2292.000000	104.458530
2290.000000	104.469490
2288.000000	104.482474
2286.000000	104.491312
2284.000000	104.498198
2282.000000	104.498807
2280.000000	104.497889
2278.000000	104.492613
2276.000000	104.488433
2274.000000	104.481280
2272.000000	104.476244
2270.000000	104.469417
2268.000000	104.465067
2266.000000	104.459388
2264.000000	104.455879
2262.000000	104.451065
2260.000000	104.449592
2258.000000	104.448175
2256.000000	104.450510
2254.000000	104.450869
2252.000000	104.454868
2250.000000	104.459487
2248.000000	104.469230
2246.000000	104.477705
2244.000000	104.489267
2242.000000	104.499514
2240.000000	104.513137
2238.000000	104.525689
2236.000000	104.540695
2234.000000	104.553050
2232.000000	104.567448
2230.000000	104.579856
2228.000000	104.593557
2226.000000	104.603587
2224.000000	104.615512
2222.000000	104.623130
2220.000000	104.631948
2218.000000	104.638382
2216.000000	104.646352
2214.000000	104.650476
2212.000000	104.656105
2210.000000	104.658708
2208.000000	104.664022
2206.000000	104.668421
2204.000000	104.674825
2202.000000	104.677658
2200.000000	104.683294
2198.000000	104.686198
2196.000000	104.689351
2194.000000	104.689024
2192.000000	104.691984
2190.000000	104.692513
2188.000000	104.694235
2186.000000	104.692337
2184.000000	104.692809
2182.000000	104.690885
2180.000000	104.691270
2178.000000	104.689066
2176.000000	104.688306
2174.000000	104.678184
2172.000000	104.655133
2170.000000	104.629133
2168.000000	104.640714
2166.000000	104.662950
2164.000000	104.671696
2162.000000	104.669164
2160.000000	104.668890
2158.000000	104.666365
2156.000000	104.668078
2154.000000	104.666462
2152.000000	104.665006
2150.000000	104.660945
2148.000000	104.661422
2146.000000	104.660544
2144.000000	104.661494
2142.000000	104.657723
2140.000000	104.656541
2138.000000	104.651998
2136.000000	104.649766
2134.000000	104.648764
2132.000000	104.650741
2130.000000	104.648609
2128.000000	104.648189
2126.000000	104.646203
2124.000000	104.647257
2122.000000	104.647295
2120.000000	104.651148
2118.000000	104.652659
2116.000000	104.655254
2114.000000	104.660120
2112.000000	104.671447
2110.000000	104.682229
2108.000000	104.696520
2106.000000	104.708881
2104.000000	104.722343
2102.000000	104.731692
2100.000000	104.743983
2098.000000	104.754274
2096.000000	104.769361
2094.000000	104.780493
2092.000000	104.791491
2090.000000	104.799944
2088.000000	104.819955
2086.000000	104.836551
2084.000000	104.854932
2082.000000	104.868045
2080.000000	104.886331
2078.000000	104.900479
2076.000000	104.918429
2074.000000	104.932774
2072.000000	104.953274
2070.000000	104.970716
2068.000000	104.985345
2066.000000	104.988700
2064.000000	105.012637
2062.000000	105.044674
2060.000000	105.071049
2058.000000	105.092075
2056.000000	105.116159
2054.000000	105.134983
2052.000000	105.156963
2050.000000	105.175565
2048.000000	105.197267
2046.000000	105.213074
2044.000000	105.226463
2042.000000	105.232538
2040.000000	105.255913
2038.000000	105.279086
2036.000000	105.295467
2034.000000	105.303047
2032.000000	105.304304
2030.000000	105.286891
2028.000000	105.297500
2026.000000	105.331242
2024.000000	105.354669
2022.000000	105.361814
2020.000000	105.356049
2018.000000	105.338667
2016.000000	105.366240
2014.000000	105.415221
2012.000000	105.444879
2010.000000	105.457843
2008.000000	105.473974
2006.000000	105.487130
2004.000000	105.500310
2002.000000	105.505508
2000.000000	105.509952
1998.000000	105.512219
1996.000000	105.510566
1994.000000	105.454168
1992.000000	105.406402
1990.000000	105.445252
1988.000000	105.487802
1986.000000	105.502903
1984.000000	105.505255
1982.000000	105.493645
1980.000000	105.483502
1978.000000	105.468785
1976.000000	105.454819
1974.000000	105.437970
1972.000000	105.420593
1970.000000	105.373264
1968.000000	105.302699
1966.000000	105.288139
1964.000000	105.307925
1962.000000	105.255611
1960.000000	105.135466
1958.000000	105.104080
1956.000000	105.183902
1954.000000	105.211151
1952.000000	105.195697
1950.000000	105.161153
1948.000000	105.131877
1946.000000	105.072039
1944.000000	104.953366
1942.000000	104.907081
1940.000000	105.005225
1938.000000	105.040581
1936.000000	105.021825
1934.000000	104.988139
1932.000000	104.965254
1930.000000	104.938149
1928.000000	104.911696
1926.000000	104.842719
1924.000000	104.725625
1922.000000	104.662684
1920.000000	104.544552
1918.000000	104.389452
1916.000000	104.522367
1914.000000	104.619738
1912.000000	104.557271
1910.000000	104.452064
1908.000000	104.418352
1906.000000	104.401275
1904.000000	104.366628
1902.000000	104.312786
1900.000000	104.269806
1898.000000	104.197733
1896.000000	104.116855
1894.000000	104.081563
1892.000000	104.020010
1890.000000	103.883213
1888.000000	103.937833
1886.000000	104.022123
1884.000000	104.027118
1882.000000	104.010671
1880.000000	103.994510
1878.000000	103.965201
1876.000000	103.948035
1874.000000	103.904935
1872.000000	103.724529
1870.000000	103.358411
1868.000000	103.324149
1866.000000	103.591801
1864.000000	103.732873
1862.000000	103.719584
1860.000000	103.687104
1858.000000	103.654746
1856.000000	103.637552
1854.000000	103.599963
1852.000000	103.561383
1850.000000	103.470566
1848.000000	103.288187
1846.000000	102.773883
1844.000000	102.463248
1842.000000	102.916839
1840.000000	103.226817
1838.000000	103.174876
1836.000000	103.125779
1834.000000	103.050050
1832.000000	102.736750
1830.000000	102.419946
1828.000000	102.500384
1826.000000	102.468757
1824.000000	102.499750
1822.000000	102.656262
1820.000000	102.648872
1818.000000	102.554329
1816.000000	102.495733
1814.000000	102.395312
1812.000000	102.200774
1810.000000	102.085774
1808.000000	102.097799
1806.000000	102.044019
1804.000000	101.846967
1802.000000	101.529302
1800.000000	101.385633
1798.000000	101.422488
1796.000000	101.286984
1794.000000	100.666536
1792.000000	100.331820
1790.000000	100.744234
1788.000000	100.977150
1786.000000	100.746439
1784.000000	100.599325
1782.000000	100.514853
1780.000000	100.416031
1778.000000	100.380018
1776.000000	100.059190
1774.000000	99.165578
1772.000000	98.726819
1770.000000	99.165757
1768.000000	99.424863
1766.000000	99.686494
1764.000000	99.523549
1762.000000	99.113659
1760.000000	99.178402
1758.000000	99.113679
1756.000000	98.983819
1754.000000	98.763544
1752.000000	97.987983
1750.000000	97.748877
1748.000000	98.021989
1746.000000	98.132548
1744.000000	97.995678
1742.000000	97.625435
1740.000000	97.261977
1738.000000	97.244849
1736.000000	96.267635
1734.000000	95.265593
1732.000000	96.240211
1730.000000	97.170181
1728.000000	97.413998
1726.000000	97.423315
1724.000000	97.318178
1722.000000	97.126954
1720.000000	96.180077
1718.000000	94.865884
1716.000000	95.132674
1714.000000	96.129786
1712.000000	96.636760
1710.000000	96.596838
1708.000000	96.239353
1706.000000	95.793248
1704.000000	95.558374
1702.000000	94.326398
1700.000000	93.412898
1698.000000	93.767926
1696.000000	93.683357
1694.000000	94.851118
1692.000000	95.878580
1690.000000	95.813457
1688.000000	95.301317
1686.000000	93.627835
1684.000000	92.994200
1682.000000	94.511574
1680.000000	95.394568
1678.000000	95.214777
1676.000000	94.500476
1674.000000	94.508673
1672.000000	94.587894
1670.000000	94.147480
1668.000000	94.435514
1666.000000	94.856573
1664.000000	94.508154
1662.000000	94.339862
1660.000000	94.635977
1658.000000	94.543107
1656.000000	93.152429
1654.000000	90.557354
1652.000000	90.767049
1650.000000	92.837787
1648.000000	92.713065
1646.000000	92.351322
1644.000000	93.151937
1642.000000	93.626068
1640.000000	93.379853
1638.000000	92.427693
1636.000000	91.313987
1634.000000	91.836659
1632.000000	92.686370
1630.000000	92.529995
1628.000000	92.095626
1626.000000	91.667385
1624.000000	91.016913
1622.000000	90.728218
1620.000000	90.372479
1618.000000	89.065054
1616.000000	88.520160
1614.000000	89.030083
1612.000000	88.757785
1610.000000	88.116549
1608.000000	87.792169
1606.000000	87.844431
1604.000000	88.043157
1602.000000	88.291341
1600.000000	88.540942
1598.000000	88.748935
1596.000000	88.881439
1594.000000	88.995032
1592.000000	89.073457
1590.000000	89.085399
1588.000000	89.053763
1586.000000	88.987834
1584.000000	88.910674
1582.000000	88.855166
1580.000000	88.660587
1578.000000	87.637245
1576.000000	86.917359
1574.000000	87.865143
1572.000000	88.172390
1570.000000	87.643052
1568.000000	87.744040
1566.000000	87.871733
1564.000000	87.545447
1562.000000	86.168968
1560.000000	83.885823
1558.000000	83.928543
1556.000000	85.572048
1554.000000	86.465093
1552.000000	87.137149
1550.000000	87.502353
1548.000000	87.688733
1546.000000	87.462856
1544.000000	86.912504
1542.000000	85.967688
1540.000000	85.439774
1538.000000	86.901173
1536.000000	88.346606
1534.000000	88.347521
1532.000000	88.710302
1530.000000	89.085798
1528.000000	88.847220
1526.000000	88.482557
1524.000000	88.032772
1522.000000	87.191621
1520.000000	87.364206
1518.000000	87.856759
1516.000000	87.903450
1514.000000	87.952704
1512.000000	87.741537
1510.000000	87.085113
1508.000000	85.410683
1506.000000	84.628121
1504.000000	85.449144
1502.000000	84.969948
1500.000000	82.426069
1498.000000	78.945656
1496.000000	76.423837
1494.000000	76.245384
1492.000000	77.328449
1490.000000	78.958463
1488.000000	80.962677
1486.000000	82.693117
1484.000000	83.829988
1482.000000	84.341051
1480.000000	84.574203
1478.000000	84.428254
1476.000000	83.924560
1474.000000	83.181948
1472.000000	83.008938
1470.000000	83.554089
1468.000000	83.520995
1466.000000	82.801744
1464.000000	82.407627
1462.000000	82.249897
1460.000000	81.114352
1458.000000	79.023980
1456.000000	78.045986
1454.000000	78.187229
1452.000000	77.892102
1450.000000	77.939093
1448.000000	78.718230
1446.000000	79.760279
1444.000000	80.308922
1442.000000	80.435698
1440.000000	80.262281
1438.000000	79.620883
1436.000000	79.532896
1434.000000	80.244161
1432.000000	80.402174
1430.000000	80.308198
1428.000000	80.375867
1426.000000	80.398937
1424.000000	80.254472
1422.000000	79.929512
1420.000000	79.175526
1418.000000	79.172102
1416.000000	79.598235
1414.000000	79.575887
1412.000000	79.226057
1410.000000	78.703838
1408.000000	77.937667
1406.000000	77.068799
1404.000000	76.598304
1402.000000	76.632801
1400.000000	76.772359
1398.000000	77.164701
1396.000000	77.503144
1394.000000	77.841578
1392.000000	78.304987
1390.000000	78.313028
1388.000000	77.890780
1386.000000	77.660529
1384.000000	77.670434
1382.000000	77.794820
1380.000000	77.883198
1378.000000	77.813741
1376.000000	77.607246
1374.000000	77.438634
1372.000000	77.458741
1370.000000	77.396659
1368.000000	77.243525
1366.000000	77.077040
1364.000000	76.777151
1362.000000	76.566247
1360.000000	76.538229
1358.000000	76.455832
1356.000000	76.264976
1354.000000	76.060128
1352.000000	75.858998
1350.000000	75.643369
1348.000000	75.425917
1346.000000	75.202430
1344.000000	74.950266
1342.000000	74.641295
1340.000000	74.339260
1338.000000	74.210683
1336.000000	74.179391
1334.000000	74.111059
1332.000000	73.965513
1330.000000	73.774726
1328.000000	73.553217
1326.000000	73.310827
1324.000000	73.045230
1322.000000	72.755384
1320.000000	72.434692
1318.000000	72.132677
1316.000000	71.843791
1314.000000	71.534709
1312.000000	71.225979
1310.000000	70.921997
1308.000000	70.597930
1306.000000	70.270719
1304.000000	69.930960
1302.000000	69.586598
1300.000000	69.240258
1298.000000	68.892991
1296.000000	68.537394
1294.000000	68.173701
1292.000000	67.788665
1290.000000	67.390880
1288.000000	66.986953
1286.000000	66.589808
1284.000000	66.179312
1282.000000	65.748023
1280.000000	65.290167
1278.000000	64.803836
1276.000000	64.264278
1274.000000	63.647286
1272.000000	62.913927
1270.000000	62.026409
1268.000000	60.920904
1266.000000	59.600504
1264.000000	58.225646
1262.000000	57.120888
1260.000000	56.568246
1258.000000	56.578384
1256.000000	56.871121
1254.000000	57.118065
1252.000000	57.117671
1250.000000	56.875188
1248.000000	56.479145
1246.000000	56.007672
1244.000000	55.498378
1242.000000	54.982145
1240.000000	54.471343
1238.000000	53.979393
1236.000000	53.502005
1234.000000	53.038632
1232.000000	52.583467
1230.000000	52.137298
1228.000000	51.690574
1226.000000	51.239661
1224.000000	50.778745
1222.000000	50.306751
1220.000000	49.812632
1218.000000	49.299660
1216.000000	48.776782
1214.000000	48.262778
1212.000000	47.769431
1210.000000	47.314333
1208.000000	46.895769
1206.000000	46.499708
1204.000000	46.101729
1202.000000	45.702011
1200.000000	45.306664
1198.000000	44.918913
1196.000000	44.526508
1194.000000	44.121297
1192.000000	43.701363
1190.000000	43.272541
1188.000000	42.829596
1186.000000	42.357802
1184.000000	41.771691
1182.000000	41.041847
1180.000000	40.476205
1178.000000	40.229328
1176.000000	39.995791
1174.000000	39.638095
1172.000000	39.211023
1170.000000	38.762370
1168.000000	38.295333
1166.000000	37.820073
1164.000000	37.348532
1162.000000	36.887818
1160.000000	36.431748
1158.000000	35.996126
1156.000000	35.574716
1154.000000	35.155457
1152.000000	34.729101
1150.000000	34.307447
1148.000000	33.876348
1146.000000	33.437818
1144.000000	33.007855
1142.000000	32.628726
1140.000000	32.317623
1138.000000	32.005728
1136.000000	31.644762
1134.000000	31.253063
1132.000000	30.837638
1130.000000	30.410511
1128.000000	29.986911
1126.000000	29.568008
1124.000000	29.139328
1122.000000	28.701921
1120.000000	28.252971
1118.000000	27.795250
1116.000000	27.328164
1114.000000	26.860009
1112.000000	26.390602
1110.000000	25.925472
1108.000000	25.470028
1106.000000	25.035072
1104.000000	24.618028
1102.000000	24.208826
1100.000000	23.796489
1098.000000	23.388324
1096.000000	22.989529
1094.000000	22.606623
1092.000000	22.238420
1090.000000	21.886505
1088.000000	21.544576
1086.000000	21.207940
1084.000000	20.859951
1082.000000	20.502623
1080.000000	20.164699
1078.000000	19.859292
1076.000000	19.581788
1074.000000	19.349470
1072.000000	19.134895
1070.000000	18.911489
1068.000000	18.682109
1066.000000	18.452366
1064.000000	18.219065
1062.000000	17.984305
1060.000000	17.737827
1058.000000	17.450799
1056.000000	17.061339
1054.000000	16.547865
1052.000000	16.039493
1050.000000	15.740689
1048.000000	15.707743
1046.000000	15.789688
1044.000000	15.791148
1042.000000	15.675584
1040.000000	15.490967
1038.000000	15.278552
1036.000000	15.051484
1034.000000	14.814079
1032.000000	14.565865
1030.000000	14.308979
1028.000000	14.043481
1026.000000	13.773680
1024.000000	13.500629
1022.000000	13.232570
1020.000000	12.976926
1018.000000	12.742592
1016.000000	12.530156
1014.000000	12.342623
1012.000000	12.173229
1010.000000	12.011278
1008.000000	11.845477
1006.000000	11.670145
1004.000000	11.477593
1002.000000	11.264404
1000.000000	11.034051
